packet_rx,packet_esp,pc_timestamp,pc_time_utc,gps_unix,gps_time_utc,time_source,bmp_temp_c,bmp_pressure_hpa,dht_temp_c,dht_humidity_pct,accel_x,accel_y,accel_z,gyro_x,gyro_y,gyro_z,pitch_deg,roll_deg,gps_lat,gps_lng,gps_alt_m,gps_sats,gps_fix,solenoid_state,solenoid_send_ok
1,3,1777485796.035,4/29/26 19:03,1777485795,4/29/26 18:03,gps,15.7,1020.0,15.9,46.9,0.0,0.0,0.0,0.0,0.0,0.0,0.0,0.0,53.269402,-9.077399,27.1,16,1,,
2,4,1777485797.031,4/29/26 19:03,1777485796,4/29/26 18:03,gps,15.7,1020.0,15.9,46.9,0.0,0.0,0.0,0.0,0.0,0.0,0.0,0.0,53.269402,-9.077399,27.1,16,1,,
3,5,1777485798.035,4/29/26 19:03,1777485797,4/29/26 18:03,gps,15.7,1020.0,15.9,46.9,0.0,0.0,0.0,0.0,0.0,0.0,0.0,0.0,53.269402,-9.077399,27.1,16,1,,
4,6,1777485799.031,4/29/26 19:03,1777485798,4/29/26 18:03,gps,15.7,1020.0,15.9,46.9,0.0,0.0,0.0,0.0,0.0,0.0,0.0,0.0,53.269402,-9.077398,27.2,16,1,,
5,7,1777485800.039,4/29/26 19:03,1777485799,4/29/26 18:03,gps,15.7,1020.0,15.9,47.0,0.0,0.0,0.0,0.0,0.0,0.0,0.0,0.0,53.269402,-9.077398,27.2,16,1,,
6,8,1777485801.029,4/29/26 19:03,1777485800,4/29/26 18:03,gps,15.7,1020.0,15.9,47.0,0.0,0.0,0.0,0.0,0.0,0.0,0.0,0.0,53.269402,-9.077398,27.2,16,1,,
7,9,1777485802.035,4/29/26 19:03,1777485801,4/29/26 18:03,gps,15.7,1020.0,15.9,46.9,0.0,0.0,0.0,0.0,0.0,0.0,0.0,0.0,53.269402,-9.077398,27.2,16,1,,
8,10,1777485803.029,4/29/26 19:03,1777485802,4/29/26 18:03,gps,15.7,1020.0,15.9,46.9,0.0,0.0,0.0,0.0,0.0,0.0,0.0,0.0,53.269402,-9.077398,27.2,16,1,,
9,11,1777485804.041,4/29/26 19:03,1777485803,4/29/26 18:03,gps,15.7,1020.0,15.9,46.9,0.0,0.0,0.0,0.0,0.0,0.0,0.0,0.0,53.269402,-9.077398,27.2,16,1,,
10,12,1777485805.029,4/29/26 19:03,1777485804,4/29/26 18:03,gps,15.7,1020.0,15.9,46.9,0.0,0.0,0.0,0.0,0.0,0.0,0.0,0.0,53.269402,-9.077398,27.2,16,1,,
11,13,1777485806.037,4/29/26 19:03,1777485805,4/29/26 18:03,gps,15.7,1020.0,15.9,46.8,0.0,0.0,0.0,0.0,0.0,0.0,0.0,0.0,53.269402,-9.077398,27.2,16,1,,
12,14,1777485807.029,4/29/26 19:03,1777485806,4/29/26 18:03,gps,15.7,1020.0,15.9,46.8,0.0,0.0,0.0,0.0,0.0,0.0,0.0,0.0,53.269402,-9.077398,27.2,16,1,,
13,15,1777485808.035,4/29/26 19:03,1777485807,4/29/26 18:03,gps,15.7,1020.0,15.9,46.8,0.0,0.0,0.0,0.0,0.0,0.0,0.0,0.0,53.269402,-9.077397,27.3,16,1,,
14,16,1777485809.029,4/29/26 19:03,1777485808,4/29/26 18:03,gps,15.7,1020.0,15.9,46.8,0.0,0.0,0.0,0.0,0.0,0.0,0.0,0.0,53.269402,-9.077397,27.3,16,1,,
15,17,1777485810.037,4/29/26 19:03,1777485809,4/29/26 18:03,gps,15.7,1020.0,15.9,46.7,0.0,0.0,0.0,0.0,0.0,0.0,0.0,0.0,53.269405,-9.077397,27.3,16,1,,
16,18,1777485811.029,4/29/26 19:03,1777485810,4/29/26 18:03,gps,15.7,1020.0,15.9,46.7,0.0,0.0,0.0,0.0,0.0,0.0,0.0,0.0,53.269405,-9.077397,27.3,16,1,,
17,19,1777485812.035,4/29/26 19:03,1777485811,4/29/26 18:03,gps,15.7,1020.0,15.9,46.7,0.0,0.0,0.0,0.0,0.0,0.0,0.0,0.0,53.269405,-9.077397,27.3,16,1,,
18,20,1777485813.029,4/29/26 19:03,1777485812,4/29/26 18:03,gps,15.7,1020.0,15.9,46.7,0.0,0.0,0.0,0.0,0.0,0.0,0.0,0.0,53.269405,-9.077396,27.3,16,1,,
19,21,1777485814.037,4/29/26 19:03,1777485813,4/29/26 18:03,gps,15.7,1020.0,15.9,46.7,0.0,0.0,0.0,0.0,0.0,0.0,0.0,0.0,53.269405,-9.077396,27.3,16,1,,
20,22,1777485815.029,4/29/26 19:03,1777485814,4/29/26 18:03,gps,15.7,1020.0,15.9,46.7,0.0,0.0,0.0,0.0,0.0,0.0,0.0,0.0,53.269405,-9.077396,27.3,16,1,,
21,23,1777485816.037,4/29/26 19:03,1777485815,4/29/26 18:03,gps,15.7,1020.0,15.9,46.7,0.0,0.0,0.0,0.0,0.0,0.0,0.0,0.0,53.269405,-9.077395,27.3,16,1,,
22,24,1777485817.029,4/29/26 19:03,1777485816,4/29/26 18:03,gps,15.7,1020.0,15.9,46.7,0.0,0.0,0.0,0.0,0.0,0.0,0.0,0.0,53.269405,-9.077395,27.3,16,1,,
23,25,1777485818.035,4/29/26 19:03,1777485817,4/29/26 18:03,gps,15.8,1020.0,15.9,46.7,0.0,0.0,0.0,0.0,0.0,0.0,0.0,0.0,53.269402,-9.077396,27.1,16,1,,
24,26,1777485819.029,4/29/26 19:03,1777485818,4/29/26 18:03,gps,15.7,1020.0,15.9,46.7,0.0,0.0,0.0,0.0,0.0,0.0,0.0,0.0,53.269402,-9.077394,27.2,16,1,,
25,27,1777485820.035,4/29/26 19:03,1777485819,4/29/26 18:03,gps,15.7,1020.0,15.9,46.6,0.0,0.0,0.0,0.0,0.0,0.0,0.0,0.0,53.269402,-9.077394,27.2,16,1,,
26,28,1777485821.029,4/29/26 19:03,1777485820,4/29/26 18:03,gps,15.7,1020.0,15.9,46.6,0.0,0.0,0.0,0.0,0.0,0.0,0.0,0.0,53.269402,-9.077393,27.2,16,1,,
27,29,1777485822.035,4/29/26 19:03,1777485821,4/29/26 18:03,gps,15.7,1020.0,15.9,46.5,0.0,0.0,0.0,0.0,0.0,0.0,0.0,0.0,53.269405,-9.077392,27.2,16,1,,
28,30,1777485823.029,4/29/26 19:03,1777485822,4/29/26 18:03,gps,15.7,1020.0,15.9,46.5,0.0,0.0,0.0,0.0,0.0,0.0,0.0,0.0,53.269405,-9.077391,27.2,16,1,,
29,31,1777485824.035,4/29/26 19:03,1777485823,4/29/26 18:03,gps,15.7,1020.0,15.9,46.5,0.0,0.0,0.0,0.0,0.0,0.0,0.0,0.0,53.269405,-9.07739,27.2,16,1,,
30,32,1777485825.029,4/29/26 19:03,1777485824,4/29/26 18:03,gps,15.6,1020.0,15.9,46.5,0.0,0.0,0.0,0.0,0.0,0.0,0.0,0.0,53.269405,-9.077389,27.2,16,1,,
31,33,1777485826.035,4/29/26 19:03,1777485825,4/29/26 18:03,gps,15.6,1020.0,15.9,46.5,0.0,0.0,0.0,0.0,0.0,0.0,0.0,0.0,53.269405,-9.077388,27.2,16,1,,
32,34,1777485827.028,4/29/26 19:03,1777485826,4/29/26 18:03,gps,15.6,1020.0,15.9,46.5,0.0,0.0,0.0,0.0,0.0,0.0,0.0,0.0,53.269405,-9.077387,27.2,16,1,,
33,35,1777485828.035,4/29/26 19:03,1777485827,4/29/26 18:03,gps,15.6,1020.0,15.9,46.5,0.0,0.0,0.0,0.0,0.0,0.0,0.0,0.0,53.269405,-9.077386,27.2,16,1,,
34,36,1777485829.031,4/29/26 19:03,1777485828,4/29/26 18:03,gps,15.6,1020.0,15.9,46.5,0.0,0.0,0.0,0.0,0.0,0.0,0.0,0.0,53.269405,-9.077386,27.2,16,1,,
35,37,1777485830.035,4/29/26 19:03,1777485829,4/29/26 18:03,gps,15.6,1020.0,15.9,46.6,0.0,0.0,0.0,0.0,0.0,0.0,0.0,0.0,53.269405,-9.077385,27.2,16,1,,
36,38,1777485831.029,4/29/26 19:03,1777485830,4/29/26 18:03,gps,15.6,1020.0,15.9,46.6,0.0,0.0,0.0,0.0,0.0,0.0,0.0,0.0,53.269405,-9.077385,27.2,16,1,,
37,39,1777485832.035,4/29/26 19:03,1777485831,4/29/26 18:03,gps,15.6,1020.0,15.9,46.6,0.0,0.0,0.0,0.0,0.0,0.0,0.0,0.0,53.269405,-9.077385,27.2,16,1,,
38,40,1777485833.029,4/29/26 19:03,1777485832,4/29/26 18:03,gps,15.6,1020.0,15.9,46.6,0.0,0.0,0.0,0.0,0.0,0.0,0.0,0.0,53.269405,-9.077384,27.2,16,1,,
39,41,1777485834.035,4/29/26 19:03,1777485833,4/29/26 18:03,gps,15.6,1020.0,15.9,46.7,0.0,0.0,0.0,0.0,0.0,0.0,0.0,0.0,53.269405,-9.077385,27.2,16,1,,
40,42,1777485835.029,4/29/26 19:03,1777485834,4/29/26 18:03,gps,15.6,1020.0,15.9,46.7,0.0,0.0,0.0,0.0,0.0,0.0,0.0,0.0,53.269405,-9.077385,27.2,16,1,,
41,43,1777485836.035,4/29/26 19:03,1777485835,4/29/26 18:03,gps,15.6,1020.0,15.9,46.6,0.0,0.0,0.0,0.0,0.0,0.0,0.0,0.0,53.269405,-9.077385,27.2,16,1,,
42,44,1777485837.029,4/29/26 19:03,1777485836,4/29/26 18:03,gps,15.6,1020.0,15.9,46.6,0.0,0.0,0.0,0.0,0.0,0.0,0.0,0.0,53.269409,-9.077385,27.2,16,1,,
43,45,1777485838.035,4/29/26 19:03,1777485837,4/29/26 18:03,gps,15.6,1020.0,15.9,46.7,0.0,0.0,0.0,0.0,0.0,0.0,0.0,0.0,53.269409,-9.077385,27.2,16,1,,
44,46,1777485839.029,4/29/26 19:03,1777485838,4/29/26 18:03,gps,15.6,1020.0,15.9,46.7,0.0,0.0,0.0,0.0,0.0,0.0,0.0,0.0,53.269409,-9.077385,27.2,16,1,,
45,47,1777485840.035,4/29/26 19:03,1777485839,4/29/26 18:03,gps,15.6,1020.0,15.9,46.7,0.0,0.0,0.0,0.0,0.0,0.0,0.0,0.0,53.269409,-9.077385,27.2,16,1,,
46,48,1777485841.029,4/29/26 19:04,1777485840,4/29/26 18:04,gps,15.6,1020.0,15.9,46.7,0.0,0.0,0.0,0.0,0.0,0.0,0.0,0.0,53.269409,-9.077385,27.2,16,1,,
47,49,1777485842.035,4/29/26 19:04,1777485841,4/29/26 18:04,gps,15.6,1020.0,15.9,46.6,0.0,0.0,0.0,0.0,0.0,0.0,0.0,0.0,53.269409,-9.077385,27.2,16,1,,
48,50,1777485843.029,4/29/26 19:04,1777485842,4/29/26 18:04,gps,15.6,1020.0,15.9,46.6,0.0,0.0,0.0,0.0,0.0,0.0,0.0,0.0,53.269409,-9.077385,27.2,16,1,,
49,51,1777485844.035,4/29/26 19:04,1777485843,4/29/26 18:04,gps,15.6,1020.0,15.9,46.6,0.0,0.0,0.0,0.0,0.0,0.0,0.0,0.0,53.269409,-9.077385,27.2,16,1,,
50,52,1777485845.029,4/29/26 19:04,1777485844,4/29/26 18:04,gps,15.6,1020.0,15.9,46.6,0.0,0.0,0.0,0.0,0.0,0.0,0.0,0.0,53.269409,-9.077385,27.2,16,1,,
51,53,1777485846.035,4/29/26 19:04,1777485845,4/29/26 18:04,gps,15.6,1020.0,15.9,46.6,0.0,0.0,0.0,0.0,0.0,0.0,0.0,0.0,53.269409,-9.077385,27.2,16,1,,
52,54,1777485847.029,4/29/26 19:04,1777485846,4/29/26 18:04,gps,15.6,1020.0,15.9,46.6,0.0,0.0,0.0,0.0,0.0,0.0,0.0,0.0,53.269409,-9.077385,27.2,16,1,,
53,55,1777485848.035,4/29/26 19:04,1777485847,4/29/26 18:04,gps,15.6,1020.0,15.9,46.6,0.0,0.0,0.0,0.0,0.0,0.0,0.0,0.0,53.269409,-9.077385,27.2,16,1,,
54,56,1777485849.029,4/29/26 19:04,1777485848,4/29/26 18:04,gps,15.6,1020.0,15.9,46.6,0.0,0.0,0.0,0.0,0.0,0.0,0.0,0.0,53.269409,-9.077385,27.2,16,1,,
55,57,1777485850.035,4/29/26 19:04,1777485849,4/29/26 18:04,gps,15.6,1020.0,15.9,46.6,0.0,0.0,0.0,0.0,0.0,0.0,0.0,0.0,53.269409,-9.077385,27.2,16,1,,
56,58,1777485851.028,4/29/26 19:04,1777485850,4/29/26 18:04,gps,15.6,1020.0,15.9,46.6,0.0,0.0,0.0,0.0,0.0,0.0,0.0,0.0,53.269409,-9.077385,27.2,16,1,,
57,59,1777485852.035,4/29/26 19:04,1777485851,4/29/26 18:04,gps,15.6,1020.0,15.9,46.6,0.0,0.0,0.0,0.0,0.0,0.0,0.0,0.0,53.269409,-9.077385,27.2,16,1,,
58,60,1777485853.029,4/29/26 19:04,1777485852,4/29/26 18:04,gps,15.6,1020.0,15.9,46.6,0.0,0.0,0.0,0.0,0.0,0.0,0.0,0.0,53.269409,-9.077385,27.2,16,1,,
59,61,1777485854.037,4/29/26 19:04,1777485853,4/29/26 18:04,gps,15.6,1020.0,15.9,46.6,0.0,0.0,0.0,0.0,0.0,0.0,0.0,0.0,53.269409,-9.077385,27.2,16,1,,
60,62,1777485855.028,4/29/26 19:04,1777485854,4/29/26 18:04,gps,15.6,1020.0,15.9,46.6,0.0,0.0,0.0,0.0,0.0,0.0,0.0,0.0,53.269409,-9.077385,27.2,16,1,,
61,63,1777485856.035,4/29/26 19:04,1777485855,4/29/26 18:04,gps,15.6,1020.0,15.9,46.6,0.0,0.0,0.0,0.0,0.0,0.0,0.0,0.0,53.269409,-9.077385,27.2,16,1,,
62,64,1777485857.028,4/29/26 19:04,1777485856,4/29/26 18:04,gps,15.6,1020.0,15.9,46.6,0.0,0.0,0.0,0.0,0.0,0.0,0.0,0.0,53.269409,-9.077385,27.2,16,1,,
63,65,1777485858.034,4/29/26 19:04,1777485857,4/29/26 18:04,gps,15.6,1020.0,15.9,46.6,0.0,0.0,0.0,0.0,0.0,0.0,0.0,0.0,53.269409,-9.077385,27.2,16,1,,
64,66,1777485859.029,4/29/26 19:04,1777485858,4/29/26 18:04,gps,15.5,1020.0,15.9,46.6,0.0,0.0,0.0,0.0,0.0,0.0,0.0,0.0,53.269409,-9.077385,27.3,16,1,,
65,67,1777485860.034,4/29/26 19:04,1777485859,4/29/26 18:04,gps,15.5,1020.0,15.9,46.8,0.0,0.0,0.0,0.0,0.0,0.0,0.0,0.0,53.269409,-9.077385,27.3,16,1,,
66,68,1777485861.029,4/29/26 19:04,1777485860,4/29/26 18:04,gps,15.5,1020.0,15.9,46.8,0.0,0.0,0.0,0.0,0.0,0.0,0.0,0.0,53.269409,-9.077385,27.3,16,1,,
67,69,1777485862.037,4/29/26 19:04,1777485861,4/29/26 18:04,gps,15.5,1020.0,15.9,47.0,0.0,0.0,0.0,0.0,0.0,0.0,0.0,0.0,53.269409,-9.077385,27.3,16,1,,
68,70,1777485863.028,4/29/26 19:04,1777485862,4/29/26 18:04,gps,15.5,1020.0,15.9,47.0,0.0,0.0,0.0,0.0,0.0,0.0,0.0,0.0,53.269409,-9.077385,27.3,16,1,,
69,71,1777485864.035,4/29/26 19:04,1777485863,4/29/26 18:04,gps,15.5,1020.0,15.9,47.1,0.0,0.0,0.0,0.0,0.0,0.0,0.0,0.0,53.269409,-9.077385,27.3,16,1,,
70,72,1777485865.03,4/29/26 19:04,1777485864,4/29/26 18:04,gps,15.5,1020.0,15.9,47.1,0.0,0.0,0.0,0.0,0.0,0.0,0.0,0.0,53.269409,-9.077385,27.3,16,1,,
71,73,1777485866.035,4/29/26 19:04,1777485865,4/29/26 18:04,gps,15.5,1020.0,15.9,47.1,0.0,0.0,0.0,0.0,0.0,0.0,0.0,0.0,53.269409,-9.077385,27.3,16,1,,
72,74,1777485867.028,4/29/26 19:04,1777485866,4/29/26 18:04,gps,15.5,1020.0,15.9,47.1,0.0,0.0,0.0,0.0,0.0,0.0,0.0,0.0,53.269409,-9.077385,27.3,16,1,,
73,75,1777485868.035,4/29/26 19:04,1777485867,4/29/26 18:04,gps,15.5,1020.0,15.9,47.2,0.0,0.0,0.0,0.0,0.0,0.0,0.0,0.0,53.269409,-9.077385,27.4,16,1,,
74,76,1777485869.029,4/29/26 19:04,1777485868,4/29/26 18:04,gps,15.5,1020.0,15.9,47.2,0.0,0.0,0.0,0.0,0.0,0.0,0.0,0.0,53.269409,-9.077385,27.4,16,1,,
75,77,1777485870.035,4/29/26 19:04,1777485869,4/29/26 18:04,gps,15.5,1020.0,15.9,47.2,0.0,0.0,0.0,0.0,0.0,0.0,0.0,0.0,53.269409,-9.077385,27.4,16,1,,
76,78,1777485871.028,4/29/26 19:04,1777485870,4/29/26 18:04,gps,15.5,1020.0,15.9,47.2,0.0,0.0,0.0,0.0,0.0,0.0,0.0,0.0,53.269409,-9.077385,27.4,16,1,,
77,79,1777485872.034,4/29/26 19:04,1777485871,4/29/26 18:04,gps,15.5,1020.0,15.9,47.2,0.0,0.0,0.0,0.0,0.0,0.0,0.0,0.0,53.269409,-9.077385,27.4,16,1,,
78,80,1777485873.029,4/29/26 19:04,1777485872,4/29/26 18:04,gps,15.5,1020.0,15.9,47.2,0.0,0.0,0.0,0.0,0.0,0.0,0.0,0.0,53.269409,-9.077385,27.4,16,1,,
79,81,1777485874.037,4/29/26 19:04,1777485873,4/29/26 18:04,gps,15.5,1020.0,15.9,47.1,0.0,0.0,0.0,0.0,0.0,0.0,0.0,0.0,53.269409,-9.077385,27.4,16,1,,
80,82,1777485875.028,4/29/26 19:04,1777485874,4/29/26 18:04,gps,15.5,1020.0,15.9,47.1,0.0,0.0,0.0,0.0,0.0,0.0,0.0,0.0,53.269409,-9.077385,27.4,16,1,,
81,83,1777485876.039,4/29/26 19:04,1777485875,4/29/26 18:04,gps,15.5,1020.0,15.9,47.0,0.0,0.0,0.0,0.0,0.0,0.0,0.0,0.0,53.269409,-9.077385,27.4,16,1,,
82,84,1777485877.029,4/29/26 19:04,1777485876,4/29/26 18:04,gps,15.5,1020.0,15.9,47.0,0.0,0.0,0.0,0.0,0.0,0.0,0.0,0.0,53.269409,-9.077385,27.4,16,1,,
83,85,1777485878.035,4/29/26 19:04,1777485877,4/29/26 18:04,gps,15.5,1020.0,15.9,47.0,0.0,0.0,0.0,0.0,0.0,0.0,0.0,0.0,53.269409,-9.077385,27.4,16,1,,
84,86,1777485879.029,4/29/26 19:04,1777485878,4/29/26 18:04,gps,15.5,1020.0,15.9,47.0,0.0,0.0,0.0,0.0,0.0,0.0,0.0,0.0,53.269409,-9.077385,27.4,16,1,,
85,87,1777485880.034,4/29/26 19:04,1777485879,4/29/26 18:04,gps,15.5,1020.0,15.8,46.9,0.0,0.0,0.0,0.0,0.0,0.0,0.0,0.0,53.269409,-9.077385,27.4,16,1,,
86,88,1777485881.029,4/29/26 19:04,1777485880,4/29/26 18:04,gps,15.5,1020.0,15.8,46.9,0.0,0.0,0.0,0.0,0.0,0.0,0.0,0.0,53.269409,-9.077385,27.4,16,1,,
87,89,1777485882.034,4/29/26 19:04,1777485881,4/29/26 18:04,gps,15.5,1020.0,15.8,46.9,0.0,0.0,0.0,0.0,0.0,0.0,0.0,0.0,53.269409,-9.077385,27.4,16,1,,
88,90,1777485883.03,4/29/26 19:04,1777485882,4/29/26 18:04,gps,15.5,1020.0,15.8,46.9,0.0,0.0,0.0,0.0,0.0,0.0,0.0,0.0,53.269409,-9.077385,27.4,16,1,,
89,91,1777485884.035,4/29/26 19:04,1777485883,4/29/26 18:04,gps,15.5,1020.0,15.8,46.9,0.0,0.0,0.0,0.0,0.0,0.0,0.0,0.0,53.269409,-9.077385,27.4,16,1,,
90,92,1777485885.034,4/29/26 19:04,1777485884,4/29/26 18:04,gps,15.5,1020.0,15.8,46.9,0.0,0.0,0.0,0.0,0.0,0.0,0.0,0.0,53.269409,-9.077385,27.4,16,1,,
91,93,1777485886.034,4/29/26 19:04,1777485885,4/29/26 18:04,gps,15.6,1020.0,15.8,46.9,0.0,0.0,0.0,0.0,0.0,0.0,0.0,0.0,53.269409,-9.077385,27.4,16,1,,
92,94,1777485887.028,4/29/26 19:04,1777485886,4/29/26 18:04,gps,15.5,1020.0,15.8,46.9,0.0,0.0,0.0,0.0,0.0,0.0,0.0,0.0,53.269409,-9.077385,27.4,16,1,,
93,95,1777485888.034,4/29/26 19:04,1777485887,4/29/26 18:04,gps,15.6,1020.0,15.8,46.9,0.0,0.0,0.0,0.0,0.0,0.0,0.0,0.0,53.269409,-9.077385,27.4,16,1,,
94,96,1777485889.029,4/29/26 19:04,1777485888,4/29/26 18:04,gps,15.6,1020.0,15.8,46.9,0.0,0.0,0.0,0.0,0.0,0.0,0.0,0.0,53.269409,-9.077385,27.4,16,1,,
95,97,1777485890.036,4/29/26 19:04,1777485889,4/29/26 18:04,gps,15.6,1020.0,15.8,47.0,0.0,0.0,0.0,0.0,0.0,0.0,0.0,0.0,53.269409,-9.077385,27.4,16,1,,
96,98,1777485891.028,4/29/26 19:04,1777485890,4/29/26 18:04,gps,15.6,1020.0,15.8,47.0,0.0,0.0,0.0,0.0,0.0,0.0,0.0,0.0,53.269409,-9.077384,27.4,16,1,,
97,99,1777485892.035,4/29/26 19:04,1777485891,4/29/26 18:04,gps,15.6,1020.0,15.8,47.0,0.0,0.0,0.0,0.0,0.0,0.0,0.0,0.0,53.269409,-9.077384,27.4,16,1,,
98,100,1777485893.028,4/29/26 19:04,1777485892,4/29/26 18:04,gps,15.6,1020.0,15.8,47.0,0.0,0.0,0.0,0.0,0.0,0.0,0.0,0.0,53.269409,-9.077384,27.5,16,1,,
99,101,1777485894.034,4/29/26 19:04,1777485893,4/29/26 18:04,gps,15.6,1020.0,15.8,47.0,0.0,0.0,0.0,0.0,0.0,0.0,0.0,0.0,53.269409,-9.077384,27.5,16,1,,
100,102,1777485895.029,4/29/26 19:04,1777485894,4/29/26 18:04,gps,15.6,1020.0,15.8,47.0,0.0,0.0,0.0,0.0,0.0,0.0,0.0,0.0,53.269409,-9.077384,27.5,16,1,,
101,103,1777485896.035,4/29/26 19:04,1777485895,4/29/26 18:04,gps,15.6,1020.0,15.8,47.0,0.0,0.0,0.0,0.0,0.0,0.0,0.0,0.0,53.269409,-9.077383,27.5,16,1,,
102,104,1777485897.028,4/29/26 19:04,1777485896,4/29/26 18:04,gps,15.6,1020.0,15.8,47.0,0.0,0.0,0.0,0.0,0.0,0.0,0.0,0.0,53.269409,-9.077383,27.5,16,1,,
103,105,1777485898.035,4/29/26 19:04,1777485897,4/29/26 18:04,gps,15.6,1020.0,15.8,46.9,0.0,0.0,0.0,0.0,0.0,0.0,0.0,0.0,53.269409,-9.077383,27.5,16,1,,
104,106,1777485899.03,4/29/26 19:04,1777485898,4/29/26 18:04,gps,15.6,1020.0,15.8,46.9,0.0,0.0,0.0,0.0,0.0,0.0,0.0,0.0,53.269409,-9.077383,27.5,16,1,,
105,107,1777485900.035,4/29/26 19:05,1777485899,4/29/26 18:04,gps,15.6,1020.0,15.8,46.9,0.0,0.0,0.0,0.0,0.0,0.0,0.0,0.0,53.269409,-9.077383,27.5,16,1,,
106,108,1777485901.029,4/29/26 19:05,1777485900,4/29/26 18:04,gps,15.6,1020.0,15.8,46.9,0.0,0.0,0.0,0.0,0.0,0.0,0.0,0.0,53.269409,-9.077384,27.5,16,1,,
107,109,1777485902.034,4/29/26 19:05,1777485901,4/29/26 18:05,gps,15.6,1020.0,15.8,46.9,0.0,0.0,0.0,0.0,0.0,0.0,0.0,0.0,53.269409,-9.077384,27.5,16,1,,
108,110,1777485903.028,4/29/26 19:05,1777485902,4/29/26 18:05,gps,15.6,1020.0,15.8,46.9,0.0,0.0,0.0,0.0,0.0,0.0,0.0,0.0,53.269409,-9.077384,27.5,16,1,,
109,111,1777485904.035,4/29/26 19:05,1777485903,4/29/26 18:05,gps,15.6,1020.0,15.8,46.8,0.0,0.0,0.0,0.0,0.0,0.0,0.0,0.0,53.269409,-9.077384,27.5,16,1,,
110,112,1777485905.029,4/29/26 19:05,1777485904,4/29/26 18:05,gps,15.6,1020.0,15.8,46.8,0.0,0.0,0.0,0.0,0.0,0.0,0.0,0.0,53.269409,-9.077384,27.5,16,1,,
111,113,1777485906.037,4/29/26 19:05,1777485905,4/29/26 18:05,gps,15.6,1020.0,15.8,46.8,0.0,0.0,0.0,0.0,0.0,0.0,0.0,0.0,53.269409,-9.077384,27.5,16,1,,
112,114,1777485907.028,4/29/26 19:05,1777485906,4/29/26 18:05,gps,15.6,1020.0,15.8,46.8,0.0,0.0,0.0,0.0,0.0,0.0,0.0,0.0,53.269409,-9.077384,27.5,16,1,,
113,115,1777485908.035,4/29/26 19:05,1777485907,4/29/26 18:05,gps,15.6,1020.0,15.8,46.9,0.0,0.0,0.0,0.0,0.0,0.0,0.0,0.0,53.269409,-9.077384,27.5,16,1,,
114,116,1777485909.029,4/29/26 19:05,1777485908,4/29/26 18:05,gps,15.5,1020.0,15.8,46.9,0.0,0.0,0.0,0.0,0.0,0.0,0.0,0.0,53.269409,-9.077384,27.5,16,1,,
115,117,1777485910.035,4/29/26 19:05,1777485909,4/29/26 18:05,gps,15.5,1020.0,15.8,47.0,0.0,0.0,0.0,0.0,0.0,0.0,0.0,0.0,53.269405,-9.077384,27.5,16,1,,
116,118,1777485911.028,4/29/26 19:05,1777485910,4/29/26 18:05,gps,15.5,1020.0,15.8,47.0,0.0,0.0,0.0,0.0,0.0,0.0,0.0,0.0,53.269405,-9.077384,27.5,16,1,,
117,119,1777485912.034,4/29/26 19:05,1777485911,4/29/26 18:05,gps,15.5,1020.0,15.8,47.0,0.0,0.0,0.0,0.0,0.0,0.0,0.0,0.0,53.269405,-9.077384,27.5,16,1,,
118,120,1777485913.029,4/29/26 19:05,1777485912,4/29/26 18:05,gps,15.5,1020.0,15.8,47.0,0.0,0.0,0.0,0.0,0.0,0.0,0.0,0.0,53.269405,-9.077384,27.5,16,1,,
119,121,1777485914.034,4/29/26 19:05,1777485913,4/29/26 18:05,gps,15.5,1020.0,15.8,47.0,0.0,0.0,0.0,0.0,0.0,0.0,0.0,0.0,53.269405,-9.077384,27.5,16,1,,
120,122,1777485915.028,4/29/26 19:05,1777485914,4/29/26 18:05,gps,15.6,1020.0,15.8,47.0,0.0,0.0,0.0,0.0,0.0,0.0,0.0,0.0,53.269405,-9.077384,27.5,16,1,,
121,123,1777485916.034,4/29/26 19:05,1777485915,4/29/26 18:05,gps,15.6,1020.0,15.8,47.0,0.0,0.0,0.0,0.0,0.0,0.0,0.0,0.0,53.269405,-9.077384,27.5,16,1,,
122,124,1777485917.03,4/29/26 19:05,1777485916,4/29/26 18:05,gps,15.6,1020.0,15.8,47.0,0.0,0.0,0.0,0.0,0.0,0.0,0.0,0.0,53.269405,-9.077385,27.5,16,1,,
123,125,1777485918.035,4/29/26 19:05,1777485917,4/29/26 18:05,gps,15.6,1020.0,15.8,47.0,0.0,0.0,0.0,0.0,0.0,0.0,0.0,0.0,53.269405,-9.077385,27.5,16,1,,
124,126,1777485919.032,4/29/26 19:05,1777485918,4/29/26 18:05,gps,15.5,1020.0,15.8,47.0,0.0,0.0,0.0,0.0,0.0,0.0,0.0,0.0,53.269405,-9.077385,27.5,16,1,,
125,127,1777485920.034,4/29/26 19:05,1777485919,4/29/26 18:05,gps,15.5,1020.0,15.8,47.0,0.0,0.0,0.0,0.0,0.0,0.0,0.0,0.0,53.269405,-9.077385,27.5,16,1,,
126,128,1777485921.029,4/29/26 19:05,1777485920,4/29/26 18:05,gps,15.5,1020.0,15.8,47.0,0.0,0.0,0.0,0.0,0.0,0.0,0.0,0.0,53.269405,-9.077385,27.5,16,1,,
127,129,1777485922.034,4/29/26 19:05,1777485921,4/29/26 18:05,gps,15.5,1020.0,15.8,47.0,0.0,0.0,0.0,0.0,0.0,0.0,0.0,0.0,53.269405,-9.077385,27.5,16,1,,
128,130,1777485923.028,4/29/26 19:05,1777485922,4/29/26 18:05,gps,15.5,1020.0,15.8,47.0,0.0,0.0,0.0,0.0,0.0,0.0,0.0,0.0,53.269405,-9.077385,27.5,16,1,,
129,131,1777485924.034,4/29/26 19:05,1777485923,4/29/26 18:05,gps,15.5,1020.0,15.8,47.0,0.0,0.0,0.0,0.0,0.0,0.0,0.0,0.0,53.269405,-9.077385,27.5,16,1,,
130,132,1777485925.028,4/29/26 19:05,1777485924,4/29/26 18:05,gps,15.5,1020.0,15.8,47.0,0.0,0.0,0.0,0.0,0.0,0.0,0.0,0.0,53.269405,-9.077385,27.5,16,1,,
131,133,1777485926.036,4/29/26 19:05,1777485925,4/29/26 18:05,gps,15.5,1020.0,15.8,46.9,0.0,0.0,0.0,0.0,0.0,0.0,0.0,0.0,53.269405,-9.077385,27.5,16,1,,
132,134,1777485927.028,4/29/26 19:05,1777485926,4/29/26 18:05,gps,15.5,1020.0,15.8,46.9,0.0,0.0,0.0,0.0,0.0,0.0,0.0,0.0,53.269405,-9.077385,27.5,16,1,,
133,135,1777485928.035,4/29/26 19:05,1777485927,4/29/26 18:05,gps,15.5,1020.0,15.8,46.9,0.0,0.0,0.0,0.0,0.0,0.0,0.0,0.0,53.269405,-9.077385,27.5,16,1,,
134,136,1777485929.029,4/29/26 19:05,1777485928,4/29/26 18:05,gps,15.5,1020.0,15.8,46.9,0.0,0.0,0.0,0.0,0.0,0.0,0.0,0.0,53.269405,-9.077385,27.5,16,1,,
135,137,1777485930.035,4/29/26 19:05,1777485929,4/29/26 18:05,gps,15.5,1020.0,15.8,46.8,0.0,0.0,0.0,0.0,0.0,0.0,0.0,0.0,53.269405,-9.077385,27.5,16,1,,
136,138,1777485931.029,4/29/26 19:05,1777485930,4/29/26 18:05,gps,15.5,1020.0,15.8,46.8,0.0,0.0,0.0,0.0,0.0,0.0,0.0,0.0,53.269405,-9.077385,27.5,16,1,,
137,139,1777485932.035,4/29/26 19:05,1777485931,4/29/26 18:05,gps,15.5,1020.0,15.8,46.8,0.0,0.0,0.0,0.0,0.0,0.0,0.0,0.0,53.269405,-9.077385,27.5,16,1,,
138,140,1777485933.028,4/29/26 19:05,1777485932,4/29/26 18:05,gps,15.5,1020.0,15.8,46.8,0.0,0.0,0.0,0.0,0.0,0.0,0.0,0.0,53.269405,-9.077385,27.5,16,1,,
139,141,1777485934.036,4/29/26 19:05,1777485933,4/29/26 18:05,gps,15.5,1020.0,15.8,46.8,0.0,0.0,0.0,0.0,0.0,0.0,0.0,0.0,53.269405,-9.077385,27.5,16,1,,
140,142,1777485935.028,4/29/26 19:05,1777485934,4/29/26 18:05,gps,15.5,1020.0,15.8,46.8,0.0,0.0,0.0,0.0,0.0,0.0,0.0,0.0,53.269405,-9.077385,27.5,16,1,,
141,143,1777485936.036,4/29/26 19:05,1777485935,4/29/26 18:05,gps,15.5,1020.0,15.8,47.0,0.0,0.0,0.0,0.0,0.0,0.0,0.0,0.0,53.269405,-9.077385,27.5,16,1,,
142,144,1777485937.028,4/29/26 19:05,1777485936,4/29/26 18:05,gps,15.5,1020.0,15.8,47.0,0.0,0.0,0.0,0.0,0.0,0.0,0.0,0.0,53.269405,-9.077385,27.5,16,1,,
143,145,1777485938.035,4/29/26 19:05,1777485937,4/29/26 18:05,gps,15.5,1020.0,15.8,47.1,0.0,0.0,0.0,0.0,0.0,0.0,0.0,0.0,53.269405,-9.077385,27.5,16,1,,
144,146,1777485939.029,4/29/26 19:05,1777485938,4/29/26 18:05,gps,15.5,1020.0,15.8,47.1,0.0,0.0,0.0,0.0,0.0,0.0,0.0,0.0,53.269405,-9.077384,27.5,16,1,,
145,147,1777485940.035,4/29/26 19:05,1777485939,4/29/26 18:05,gps,15.5,1021.0,15.8,47.1,0.0,0.0,0.0,0.0,0.0,0.0,0.0,0.0,53.269405,-9.077384,27.5,16,1,,
146,148,1777485941.028,4/29/26 19:05,1777485940,4/29/26 18:05,gps,15.4,1021.0,15.8,47.1,0.0,0.0,0.0,0.0,0.0,0.0,0.0,0.0,53.269405,-9.077384,27.5,16,1,,
147,149,1777485942.034,4/29/26 19:05,1777485941,4/29/26 18:05,gps,15.4,1021.0,15.8,47.2,0.0,0.0,0.0,0.0,0.0,0.0,0.0,0.0,53.269405,-9.077384,27.5,16,1,,
148,150,1777485943.028,4/29/26 19:05,1777485942,4/29/26 18:05,gps,15.4,1020.0,15.8,47.2,0.0,0.0,0.0,0.0,0.0,0.0,0.0,0.0,53.269405,-9.077384,27.5,16,1,,
149,151,1777485944.034,4/29/26 19:05,1777485943,4/29/26 18:05,gps,15.4,1020.0,15.8,47.1,0.0,0.0,0.0,0.0,0.0,0.0,0.0,0.0,53.269405,-9.077384,27.5,16,1,,
150,152,1777485945.028,4/29/26 19:05,1777485944,4/29/26 18:05,gps,15.4,1020.0,15.8,47.1,0.0,0.0,0.0,0.0,0.0,0.0,0.0,0.0,53.269405,-9.077383,27.5,16,1,,
151,153,1777485946.034,4/29/26 19:05,1777485945,4/29/26 18:05,gps,15.4,1020.0,15.8,47.0,0.0,0.0,0.0,0.0,0.0,0.0,0.0,0.0,53.269402,-9.077383,27.5,16,1,,
152,154,1777485947.041,4/29/26 19:05,1777485946,4/29/26 18:05,gps,15.4,1020.0,15.8,47.0,0.0,0.0,0.0,0.0,0.0,0.0,0.0,0.0,53.269402,-9.077382,27.5,16,1,,
153,155,1777485948.035,4/29/26 19:05,1777485947,4/29/26 18:05,gps,15.5,1020.0,15.8,46.9,0.0,0.0,0.0,0.0,0.0,0.0,0.0,0.0,53.269402,-9.077382,27.5,16,1,,
154,156,1777485949.029,4/29/26 19:05,1777485948,4/29/26 18:05,gps,15.5,1020.0,15.8,46.9,0.0,0.0,0.0,0.0,0.0,0.0,0.0,0.0,53.269402,-9.077382,27.4,16,1,,
155,157,1777485950.035,4/29/26 19:05,1777485949,4/29/26 18:05,gps,15.5,1020.0,15.9,47.0,0.0,0.0,0.0,0.0,0.0,0.0,0.0,0.0,53.269402,-9.077382,27.4,16,1,,
156,158,1777485951.029,4/29/26 19:05,1777485950,4/29/26 18:05,gps,15.5,1020.0,15.9,47.0,0.0,0.0,0.0,0.0,0.0,0.0,0.0,0.0,53.269402,-9.077382,27.4,16,1,,
157,159,1777485952.036,4/29/26 19:05,1777485951,4/29/26 18:05,gps,15.5,1020.0,15.8,46.8,0.0,0.0,0.0,0.0,0.0,0.0,0.0,0.0,53.269402,-9.077381,27.4,16,1,,
158,160,1777485953.028,4/29/26 19:05,1777485952,4/29/26 18:05,gps,15.5,1020.0,15.8,46.8,0.0,0.0,0.0,0.0,0.0,0.0,0.0,0.0,53.269402,-9.077381,27.4,16,1,,
159,161,1777485954.034,4/29/26 19:05,1777485953,4/29/26 18:05,gps,15.5,1020.0,15.8,46.8,0.0,0.0,0.0,0.0,0.0,0.0,0.0,0.0,53.269402,-9.077381,27.4,16,1,,
160,162,1777485955.029,4/29/26 19:05,1777485954,4/29/26 18:05,gps,15.5,1020.0,15.8,46.8,0.0,0.0,0.0,0.0,0.0,0.0,0.0,0.0,53.269402,-9.077381,27.4,16,1,,
161,163,1777485956.034,4/29/26 19:05,1777485955,4/29/26 18:05,gps,15.5,1020.0,15.8,46.8,0.0,0.0,0.0,0.0,0.0,0.0,0.0,0.0,53.269402,-9.077381,27.4,16,1,,
162,164,1777485957.028,4/29/26 19:05,1777485956,4/29/26 18:05,gps,15.5,1020.0,15.8,46.8,0.0,0.0,0.0,0.0,0.0,0.0,0.0,0.0,53.269402,-9.077381,27.4,16,1,,
163,165,1777485958.034,4/29/26 19:05,1777485957,4/29/26 18:05,gps,15.5,1020.0,15.8,46.8,0.0,0.0,0.0,0.0,0.0,0.0,0.0,0.0,53.269402,-9.07738,27.4,16,1,,
164,166,1777485959.028,4/29/26 19:05,1777485958,4/29/26 18:05,gps,15.6,1020.0,15.8,46.8,0.0,0.0,0.0,0.0,0.0,0.0,0.0,0.0,53.269402,-9.07738,27.4,16,1,,
165,167,1777485960.034,4/29/26 19:05,1777485959,4/29/26 18:05,gps,15.6,1020.0,15.9,46.9,0.0,0.0,0.0,0.0,0.0,0.0,0.0,0.0,53.269402,-9.07738,27.4,16,1,,
166,168,1777485961.028,4/29/26 19:06,1777485960,4/29/26 18:05,gps,15.6,1020.0,15.9,46.9,0.0,0.0,0.0,0.0,0.0,0.0,0.0,0.0,53.269402,-9.07738,27.4,16,1,,
167,169,1777485962.034,4/29/26 19:06,1777485961,4/29/26 18:06,gps,15.6,1020.0,15.9,46.9,0.0,0.0,0.0,0.0,0.0,0.0,0.0,0.0,53.269402,-9.07738,27.4,17,1,,
168,170,1777485963.028,4/29/26 19:06,1777485962,4/29/26 18:06,gps,15.6,1020.0,15.9,46.9,0.0,0.0,0.0,0.0,0.0,0.0,0.0,0.0,53.269402,-9.07738,27.4,17,1,,
169,171,1777485964.034,4/29/26 19:06,1777485963,4/29/26 18:06,gps,15.6,1020.0,15.9,46.9,0.0,0.0,0.0,0.0,0.0,0.0,0.0,0.0,53.269402,-9.077379,27.4,17,1,,
170,172,1777485965.036,4/29/26 19:06,1777485964,4/29/26 18:06,gps,15.6,1020.0,15.9,46.9,0.0,0.0,0.0,0.0,0.0,0.0,0.0,0.0,53.269402,-9.077379,27.4,17,1,,
171,173,1777485966.034,4/29/26 19:06,1777485965,4/29/26 18:06,gps,15.6,1020.0,15.9,46.9,0.0,0.0,0.0,0.0,0.0,0.0,0.0,0.0,53.269402,-9.077379,27.4,17,1,,
172,174,1777485967.03,4/29/26 19:06,1777485966,4/29/26 18:06,gps,15.6,1020.0,15.9,46.9,0.0,0.0,0.0,0.0,0.0,0.0,0.0,0.0,53.269398,-9.077379,27.4,17,1,,
173,175,1777485968.034,4/29/26 19:06,1777485967,4/29/26 18:06,gps,15.6,1020.0,15.8,46.8,0.0,0.0,0.0,0.0,0.0,0.0,0.0,0.0,53.269398,-9.077379,27.4,17,1,,
174,176,1777485969.028,4/29/26 19:06,1777485968,4/29/26 18:06,gps,15.6,1020.0,15.8,46.8,0.0,0.0,0.0,0.0,0.0,0.0,0.0,0.0,53.269398,-9.077379,27.4,17,1,,
175,177,1777485970.034,4/29/26 19:06,1777485969,4/29/26 18:06,gps,15.6,1020.0,15.9,46.9,0.0,0.0,0.0,0.0,0.0,0.0,0.0,0.0,53.269398,-9.077379,27.4,17,1,,
176,178,1777485971.028,4/29/26 19:06,1777485970,4/29/26 18:06,gps,15.6,1020.0,15.9,46.9,0.0,0.0,0.0,0.0,0.0,0.0,0.0,0.0,53.269398,-9.077379,27.4,17,1,,
177,179,1777485972.034,4/29/26 19:06,1777485971,4/29/26 18:06,gps,15.6,1020.0,15.9,46.9,0.0,0.0,0.0,0.0,0.0,0.0,0.0,0.0,53.269398,-9.077379,27.4,17,1,,
178,180,1777485973.028,4/29/26 19:06,1777485972,4/29/26 18:06,gps,15.6,1020.0,15.9,46.9,0.0,0.0,0.0,0.0,0.0,0.0,0.0,0.0,53.269398,-9.077378,27.4,17,1,,
179,181,1777485974.034,4/29/26 19:06,1777485973,4/29/26 18:06,gps,15.6,1020.0,15.9,47.0,0.0,0.0,0.0,0.0,0.0,0.0,0.0,0.0,53.269398,-9.077378,27.4,17,1,,
180,182,1777485975.028,4/29/26 19:06,1777485974,4/29/26 18:06,gps,15.6,1020.0,15.9,47.0,0.0,0.0,0.0,0.0,0.0,0.0,0.0,0.0,53.269398,-9.077378,27.4,17,1,,
181,183,1777485976.035,4/29/26 19:06,1777485975,4/29/26 18:06,gps,15.6,1020.0,15.9,47.0,0.0,0.0,0.0,0.0,0.0,0.0,0.0,0.0,53.269398,-9.077378,27.4,17,1,,
182,184,1777485977.028,4/29/26 19:06,1777485976,4/29/26 18:06,gps,15.6,1020.0,15.9,47.0,0.0,0.0,0.0,0.0,0.0,0.0,0.0,0.0,53.269398,-9.077378,27.4,17,1,,
183,185,1777485978.038,4/29/26 19:06,1777485977,4/29/26 18:06,gps,15.6,1020.0,15.9,47.0,0.0,0.0,0.0,0.0,0.0,0.0,0.0,0.0,53.269398,-9.077378,27.4,17,1,,
184,186,1777485979.028,4/29/26 19:06,1777485978,4/29/26 18:06,gps,15.6,1020.0,15.9,47.0,0.0,0.0,0.0,0.0,0.0,0.0,0.0,0.0,53.269398,-9.077378,27.4,17,1,,
185,187,1777485980.036,4/29/26 19:06,1777485979,4/29/26 18:06,gps,15.6,1020.0,15.9,47.0,0.0,0.0,0.0,0.0,0.0,0.0,0.0,0.0,53.269398,-9.077378,27.5,17,1,,
186,188,1777485981.029,4/29/26 19:06,1777485980,4/29/26 18:06,gps,15.6,1020.0,15.9,47.0,0.0,0.0,0.0,0.0,0.0,0.0,0.0,0.0,53.269398,-9.077378,27.5,17,1,,
187,189,1777485982.034,4/29/26 19:06,1777485981,4/29/26 18:06,gps,15.6,1020.0,15.9,47.0,0.0,0.0,0.0,0.0,0.0,0.0,0.0,0.0,53.269398,-9.077378,27.5,17,1,,
188,190,1777485983.028,4/29/26 19:06,1777485982,4/29/26 18:06,gps,15.6,1020.0,15.9,47.0,0.0,0.0,0.0,0.0,0.0,0.0,0.0,0.0,53.269398,-9.077377,27.5,17,1,,
189,191,1777485984.036,4/29/26 19:06,1777485983,4/29/26 18:06,gps,15.6,1020.0,15.9,47.0,0.0,0.0,0.0,0.0,0.0,0.0,0.0,0.0,53.269398,-9.077377,27.5,17,1,,
190,192,1777485985.028,4/29/26 19:06,1777485984,4/29/26 18:06,gps,15.6,1020.0,15.9,47.0,0.0,0.0,0.0,0.0,0.0,0.0,0.0,0.0,53.269398,-9.077377,27.5,17,1,,
191,193,1777485986.034,4/29/26 19:06,1777485985,4/29/26 18:06,gps,15.6,1020.0,15.9,47.0,0.0,0.0,0.0,0.0,0.0,0.0,0.0,0.0,53.269398,-9.077377,27.5,17,1,,
192,194,1777485987.029,4/29/26 19:06,1777485986,4/29/26 18:06,gps,15.6,1020.0,15.9,47.0,0.0,0.0,0.0,0.0,0.0,0.0,0.0,0.0,53.269398,-9.077377,27.6,17,1,,
193,195,1777485988.039,4/29/26 19:06,1777485987,4/29/26 18:06,gps,15.6,1020.0,15.9,47.1,0.0,0.0,0.0,0.0,0.0,0.0,0.0,0.0,53.269398,-9.077377,27.6,17,1,,
194,196,1777485989.028,4/29/26 19:06,1777485988,4/29/26 18:06,gps,15.6,1020.0,15.9,47.1,0.0,0.0,0.0,0.0,0.0,0.0,0.0,0.0,53.269398,-9.077377,27.6,17,1,,
195,197,1777485990.034,4/29/26 19:06,1777485989,4/29/26 18:06,gps,15.6,1020.0,15.9,47.1,0.0,0.0,0.0,0.0,0.0,0.0,0.0,0.0,53.269398,-9.077377,27.6,17,1,,
196,198,1777485991.028,4/29/26 19:06,1777485990,4/29/26 18:06,gps,15.6,1020.0,15.9,47.1,0.0,0.0,0.0,0.0,0.0,0.0,0.0,0.0,53.269398,-9.077376,27.6,17,1,,
197,199,1777485992.034,4/29/26 19:06,1777485991,4/29/26 18:06,gps,15.6,1020.0,15.9,47.0,0.0,0.0,0.0,0.0,0.0,0.0,0.0,0.0,53.269398,-9.077376,27.6,17,1,,
198,200,1777485993.028,4/29/26 19:06,1777485992,4/29/26 18:06,gps,15.6,1020.0,15.9,47.0,0.0,0.0,0.0,0.0,0.0,0.0,0.0,0.0,53.269398,-9.077376,27.6,17,1,,
199,201,1777485994.034,4/29/26 19:06,1777485993,4/29/26 18:06,gps,15.6,1020.0,15.9,47.1,0.0,0.0,0.0,0.0,0.0,0.0,0.0,0.0,53.269398,-9.077376,27.6,17,1,,
200,202,1777485995.028,4/29/26 19:06,1777485994,4/29/26 18:06,gps,15.6,1020.0,15.9,47.1,0.0,0.0,0.0,0.0,0.0,0.0,0.0,0.0,53.269398,-9.077376,27.7,17,1,,
201,203,1777485996.034,4/29/26 19:06,1777485995,4/29/26 18:06,gps,15.6,1020.0,15.9,47.0,0.0,0.0,0.0,0.0,0.0,0.0,0.0,0.0,53.269398,-9.077376,27.7,17,1,,
202,204,1777485997.028,4/29/26 19:06,1777485996,4/29/26 18:06,gps,15.6,1020.0,15.9,47.0,0.0,0.0,0.0,0.0,0.0,0.0,0.0,0.0,53.269398,-9.077376,27.7,17,1,,
203,205,1777485998.034,4/29/26 19:06,1777485997,4/29/26 18:06,gps,15.6,1020.0,15.9,47.0,0.0,0.0,0.0,0.0,0.0,0.0,0.0,0.0,53.269398,-9.077377,27.7,17,1,,
204,206,1777485999.028,4/29/26 19:06,1777485998,4/29/26 18:06,gps,15.6,1020.0,15.9,47.0,0.0,0.0,0.0,0.0,0.0,0.0,0.0,0.0,53.269398,-9.077377,27.7,17,1,,
205,207,1777486000.035,4/29/26 19:06,1777485999,4/29/26 18:06,gps,15.6,1020.0,15.9,47.0,0.0,0.0,0.0,0.0,0.0,0.0,0.0,0.0,53.269398,-9.077377,27.7,17,1,,
206,208,1777486001.028,4/29/26 19:06,1777486000,4/29/26 18:06,gps,15.6,1020.0,15.9,47.0,0.0,0.0,0.0,0.0,0.0,0.0,0.0,0.0,53.269398,-9.077377,27.7,17,1,,
207,209,1777486002.034,4/29/26 19:06,1777486001,4/29/26 18:06,gps,15.6,1020.0,15.9,47.0,0.0,0.0,0.0,0.0,0.0,0.0,0.0,0.0,53.269398,-9.077377,27.7,17,1,,
208,210,1777486003.028,4/29/26 19:06,1777486002,4/29/26 18:06,gps,15.6,1020.0,15.9,47.0,0.0,0.0,0.0,0.0,0.0,0.0,0.0,0.0,53.269398,-9.077377,27.7,17,1,,
209,211,1777486004.035,4/29/26 19:06,1777486003,4/29/26 18:06,gps,15.6,1020.0,15.9,47.0,0.0,0.0,0.0,0.0,0.0,0.0,0.0,0.0,53.269398,-9.077377,27.7,17,1,,
210,212,1777486005.028,4/29/26 19:06,1777486004,4/29/26 18:06,gps,15.6,1020.0,15.9,47.0,0.0,0.0,0.0,0.0,0.0,0.0,0.0,0.0,53.269398,-9.077377,27.7,17,1,,
211,213,1777486006.034,4/29/26 19:06,1777486005,4/29/26 18:06,gps,15.6,1020.0,15.9,46.9,0.0,0.0,0.0,0.0,0.0,0.0,0.0,0.0,53.269398,-9.077377,27.7,17,1,,
212,214,1777486007.028,4/29/26 19:06,1777486006,4/29/26 18:06,gps,15.6,1020.0,15.9,46.9,0.0,0.0,0.0,0.0,0.0,0.0,0.0,0.0,53.269398,-9.077377,27.7,17,1,,
213,215,1777486008.034,4/29/26 19:06,1777486007,4/29/26 18:06,gps,15.6,1020.0,15.9,46.9,0.0,0.0,0.0,0.0,0.0,0.0,0.0,0.0,53.269398,-9.077377,27.7,17,1,,
214,216,1777486009.028,4/29/26 19:06,1777486008,4/29/26 18:06,gps,15.6,1020.0,15.9,46.9,0.0,0.0,0.0,0.0,0.0,0.0,0.0,0.0,53.269398,-9.077377,27.6,17,1,,
215,217,1777486010.035,4/29/26 19:06,1777486009,4/29/26 18:06,gps,15.7,1020.0,15.9,46.9,0.0,0.0,0.0,0.0,0.0,0.0,0.0,0.0,53.269398,-9.077377,27.6,17,1,,
216,218,1777486011.028,4/29/26 19:06,1777486010,4/29/26 18:06,gps,15.7,1020.0,15.9,46.9,0.0,0.0,0.0,0.0,0.0,0.0,0.0,0.0,53.269398,-9.077377,27.6,17,1,,
217,219,1777486012.034,4/29/26 19:06,1777486011,4/29/26 18:06,gps,15.7,1020.0,15.9,46.8,0.0,0.0,0.0,0.0,0.0,0.0,0.0,0.0,53.269398,-9.077377,27.6,17,1,,
218,220,1777486013.028,4/29/26 19:06,1777486012,4/29/26 18:06,gps,15.7,1020.0,15.9,46.8,0.0,0.0,0.0,0.0,0.0,0.0,0.0,0.0,53.269398,-9.077377,27.6,17,1,,
219,221,1777486014.034,4/29/26 19:06,1777486013,4/29/26 18:06,gps,15.7,1020.0,15.9,46.8,0.0,0.0,0.0,0.0,0.0,0.0,0.0,0.0,53.269398,-9.077377,27.6,17,1,,
220,222,1777486015.028,4/29/26 19:06,1777486014,4/29/26 18:06,gps,15.7,1020.0,15.9,46.8,0.0,0.0,0.0,0.0,0.0,0.0,0.0,0.0,53.269398,-9.077377,27.6,17,1,,
221,223,1777486016.034,4/29/26 19:06,1777486015,4/29/26 18:06,gps,15.7,1020.0,15.9,46.8,0.0,0.0,0.0,0.0,0.0,0.0,0.0,0.0,53.269398,-9.077377,27.6,17,1,,
222,224,1777486017.028,4/29/26 19:06,1777486016,4/29/26 18:06,gps,15.7,1020.0,15.9,46.8,0.0,0.0,0.0,0.0,0.0,0.0,0.0,0.0,53.269398,-9.077376,27.6,17,1,,
223,225,1777486018.034,4/29/26 19:06,1777486017,4/29/26 18:06,gps,15.7,1020.0,15.9,46.9,0.0,0.0,0.0,0.0,0.0,0.0,0.0,0.0,53.269398,-9.077376,27.6,17,1,,
224,226,1777486019.028,4/29/26 19:06,1777486018,4/29/26 18:06,gps,15.7,1020.0,15.9,46.9,0.0,0.0,0.0,0.0,0.0,0.0,0.0,0.0,53.269398,-9.077376,27.6,17,1,,
225,227,1777486020.034,4/29/26 19:06,1777486019,4/29/26 18:06,gps,15.6,1020.0,15.8,46.9,0.0,0.0,0.0,0.0,0.0,0.0,0.0,0.0,53.269398,-9.077376,27.6,17,1,,
226,228,1777486021.028,4/29/26 19:07,1777486020,4/29/26 18:07,gps,15.6,1020.0,15.8,46.9,0.0,0.0,0.0,0.0,0.0,0.0,0.0,0.0,53.269398,-9.077375,27.6,17,1,,
227,229,1777486022.036,4/29/26 19:07,1777486021,4/29/26 18:07,gps,15.6,1020.0,15.8,47.0,0.0,0.0,0.0,0.0,0.0,0.0,0.0,0.0,53.269398,-9.077375,27.6,17,1,,
228,230,1777486023.028,4/29/26 19:07,1777486022,4/29/26 18:07,gps,15.6,1020.0,15.8,47.0,0.0,0.0,0.0,0.0,0.0,0.0,0.0,0.0,53.269398,-9.077375,27.6,17,1,,
229,231,1777486024.036,4/29/26 19:07,1777486023,4/29/26 18:07,gps,15.6,1020.0,15.8,47.1,0.0,0.0,0.0,0.0,0.0,0.0,0.0,0.0,53.269398,-9.077375,27.6,17,1,,
230,232,1777486025.028,4/29/26 19:07,1777486024,4/29/26 18:07,gps,15.6,1020.0,15.8,47.1,0.0,0.0,0.0,0.0,0.0,0.0,0.0,0.0,53.269394,-9.077375,27.6,17,1,,
231,233,1777486026.036,4/29/26 19:07,1777486025,4/29/26 18:07,gps,15.6,1020.0,15.8,47.1,0.0,0.0,0.0,0.0,0.0,0.0,0.0,0.0,53.269394,-9.077375,27.6,17,1,,
232,234,1777486027.028,4/29/26 19:07,1777486026,4/29/26 18:07,gps,15.6,1020.0,15.8,47.1,0.0,0.0,0.0,0.0,0.0,0.0,0.0,0.0,53.269394,-9.077375,27.6,17,1,,
233,235,1777486028.034,4/29/26 19:07,1777486027,4/29/26 18:07,gps,15.6,1020.0,15.8,47.1,0.0,0.0,0.0,0.0,0.0,0.0,0.0,0.0,53.269394,-9.077374,27.6,17,1,,
234,236,1777486029.033,4/29/26 19:07,1777486028,4/29/26 18:07,gps,15.6,1020.0,15.8,47.1,0.0,0.0,0.0,0.0,0.0,0.0,0.0,0.0,53.269394,-9.077374,27.6,17,1,,
235,237,1777486030.034,4/29/26 19:07,1777486029,4/29/26 18:07,gps,15.6,1020.0,15.8,47.0,0.0,0.0,0.0,0.0,0.0,0.0,0.0,0.0,53.269394,-9.077374,27.6,17,1,,
236,238,1777486031.028,4/29/26 19:07,1777486030,4/29/26 18:07,gps,15.6,1020.0,15.8,47.0,0.0,0.0,0.0,0.0,0.0,0.0,0.0,0.0,53.269394,-9.077374,27.6,17,1,,
237,239,1777486032.034,4/29/26 19:07,1777486031,4/29/26 18:07,gps,15.7,1020.0,15.8,47.0,0.0,0.0,0.0,0.0,0.0,0.0,0.0,0.0,53.269394,-9.077374,27.6,17,1,,
238,240,1777486033.028,4/29/26 19:07,1777486032,4/29/26 18:07,gps,15.7,1020.0,15.8,47.0,0.0,0.0,0.0,0.0,0.0,0.0,0.0,0.0,53.269394,-9.077374,27.6,17,1,,
239,241,1777486034.034,4/29/26 19:07,1777486033,4/29/26 18:07,gps,15.7,1020.0,15.8,47.0,0.0,0.0,0.0,0.0,0.0,0.0,0.0,0.0,53.269394,-9.077374,27.6,17,1,,
240,242,1777486035.028,4/29/26 19:07,1777486034,4/29/26 18:07,gps,15.7,1020.0,15.8,47.0,0.0,0.0,0.0,0.0,0.0,0.0,0.0,0.0,53.269394,-9.077374,27.5,17,1,,
241,243,1777486036.034,4/29/26 19:07,1777486035,4/29/26 18:07,gps,15.7,1020.0,15.8,47.0,0.0,0.0,0.0,0.0,0.0,0.0,0.0,0.0,53.269394,-9.077374,27.5,17,1,,
242,244,1777486037.029,4/29/26 19:07,1777486036,4/29/26 18:07,gps,15.7,1020.0,15.8,47.0,0.0,0.0,0.0,0.0,0.0,0.0,0.0,0.0,53.269394,-9.077374,27.5,17,1,,
243,245,1777486038.034,4/29/26 19:07,1777486037,4/29/26 18:07,gps,15.7,1020.0,15.8,47.0,0.0,0.0,0.0,0.0,0.0,0.0,0.0,0.0,53.269394,-9.077374,27.5,17,1,,
244,246,1777486039.028,4/29/26 19:07,1777486038,4/29/26 18:07,gps,15.7,1020.0,15.8,47.0,0.0,0.0,0.0,0.0,0.0,0.0,0.0,0.0,53.269394,-9.077374,27.5,17,1,,
245,247,1777486040.034,4/29/26 19:07,1777486039,4/29/26 18:07,gps,15.7,1020.0,15.8,47.0,0.0,0.0,0.0,0.0,0.0,0.0,0.0,0.0,53.269394,-9.077374,27.5,17,1,,
246,248,1777486041.028,4/29/26 19:07,1777486040,4/29/26 18:07,gps,15.7,1020.0,15.8,47.0,0.0,0.0,0.0,0.0,0.0,0.0,0.0,0.0,53.269394,-9.077374,27.5,17,1,,
247,249,1777486042.034,4/29/26 19:07,1777486041,4/29/26 18:07,gps,15.7,1020.0,15.8,47.0,0.0,0.0,0.0,0.0,0.0,0.0,0.0,0.0,53.269394,-9.077374,27.5,17,1,,
248,250,1777486043.028,4/29/26 19:07,1777486042,4/29/26 18:07,gps,15.7,1020.0,15.8,47.0,0.0,0.0,0.0,0.0,0.0,0.0,0.0,0.0,53.269394,-9.077374,27.5,17,1,,
249,251,1777486044.034,4/29/26 19:07,1777486043,4/29/26 18:07,gps,15.7,1020.0,15.8,47.0,0.0,0.0,0.0,0.0,0.0,0.0,0.0,0.0,53.269394,-9.077374,27.5,17,1,,
250,252,1777486045.028,4/29/26 19:07,1777486044,4/29/26 18:07,gps,15.7,1020.0,15.8,47.0,0.0,0.0,0.0,0.0,0.0,0.0,0.0,0.0,53.269394,-9.077374,27.5,17,1,,
251,253,1777486046.036,4/29/26 19:07,1777486045,4/29/26 18:07,gps,15.7,1020.0,15.8,47.0,0.0,0.0,0.0,0.0,0.0,0.0,0.0,0.0,53.269394,-9.077373,27.5,17,1,,
252,254,1777486047.028,4/29/26 19:07,1777486046,4/29/26 18:07,gps,15.7,1020.0,15.8,47.0,0.0,0.0,0.0,0.0,0.0,0.0,0.0,0.0,53.269394,-9.077373,27.5,17,1,,
253,255,1777486048.034,4/29/26 19:07,1777486047,4/29/26 18:07,gps,15.7,1020.0,15.8,47.0,0.0,0.0,0.0,0.0,0.0,0.0,0.0,0.0,53.269394,-9.077373,27.5,17,1,,
254,256,1777486049.028,4/29/26 19:07,1777486048,4/29/26 18:07,gps,15.7,1020.0,15.8,47.0,0.0,0.0,0.0,0.0,0.0,0.0,0.0,0.0,53.269394,-9.077373,27.5,17,1,,
255,257,1777486050.034,4/29/26 19:07,1777486049,4/29/26 18:07,gps,15.7,1020.0,15.8,47.0,0.0,0.0,0.0,0.0,0.0,0.0,0.0,0.0,53.269394,-9.077373,27.5,17,1,,
256,258,1777486051.03,4/29/26 19:07,1777486050,4/29/26 18:07,gps,15.7,1020.0,15.8,47.0,0.0,0.0,0.0,0.0,0.0,0.0,0.0,0.0,53.269394,-9.077373,27.5,17,1,,
257,259,1777486052.035,4/29/26 19:07,1777486051,4/29/26 18:07,gps,15.7,1020.0,15.8,47.0,0.0,0.0,0.0,0.0,0.0,0.0,0.0,0.0,53.269394,-9.077373,27.5,17,1,,
258,260,1777486053.03,4/29/26 19:07,1777486052,4/29/26 18:07,gps,15.7,1020.0,15.8,47.0,0.0,0.0,0.0,0.0,0.0,0.0,0.0,0.0,53.269394,-9.077372,27.5,17,1,,
259,261,1777486054.036,4/29/26 19:07,1777486053,4/29/26 18:07,gps,15.7,1020.0,15.8,47.0,0.0,0.0,0.0,0.0,0.0,0.0,0.0,0.0,53.269394,-9.077372,27.5,17,1,,
260,262,1777486055.028,4/29/26 19:07,1777486054,4/29/26 18:07,gps,15.7,1020.0,15.8,47.0,0.0,0.0,0.0,0.0,0.0,0.0,0.0,0.0,53.269394,-9.077372,27.5,17,1,,
261,263,1777486056.036,4/29/26 19:07,1777486055,4/29/26 18:07,gps,15.7,1020.0,15.8,46.9,0.0,0.0,0.0,0.0,0.0,0.0,0.0,0.0,53.269394,-9.077372,27.5,17,1,,
262,264,1777486057.03,4/29/26 19:07,1777486056,4/29/26 18:07,gps,15.7,1020.0,15.8,46.9,0.0,0.0,0.0,0.0,0.0,0.0,0.0,0.0,53.269394,-9.077371,27.4,17,1,,
263,265,1777486058.036,4/29/26 19:07,1777486057,4/29/26 18:07,gps,15.7,1020.0,15.8,46.9,0.0,0.0,0.0,0.0,0.0,0.0,0.0,0.0,53.269394,-9.077371,27.4,17,1,,
264,266,1777486059.03,4/29/26 19:07,1777486058,4/29/26 18:07,gps,15.7,1020.0,15.8,46.9,0.0,0.0,0.0,0.0,0.0,0.0,0.0,0.0,53.269394,-9.077371,27.4,17,1,,
265,267,1777486060.034,4/29/26 19:07,1777486059,4/29/26 18:07,gps,15.7,1020.0,15.8,47.0,0.0,0.0,0.0,0.0,0.0,0.0,0.0,0.0,53.269394,-9.07737,27.4,17,1,,
266,268,1777486061.03,4/29/26 19:07,1777486060,4/29/26 18:07,gps,15.6,1020.0,15.8,47.0,0.0,0.0,0.0,0.0,0.0,0.0,0.0,0.0,53.269394,-9.07737,27.4,17,1,,
267,269,1777486062.034,4/29/26 19:07,1777486061,4/29/26 18:07,gps,15.6,1020.0,15.8,47.0,0.0,0.0,0.0,0.0,0.0,0.0,0.0,0.0,53.269394,-9.07737,27.4,17,1,,
268,270,1777486063.028,4/29/26 19:07,1777486062,4/29/26 18:07,gps,15.6,1020.0,15.8,47.0,0.0,0.0,0.0,0.0,0.0,0.0,0.0,0.0,53.269394,-9.077369,27.4,17,1,,
269,271,1777486064.036,4/29/26 19:07,1777486063,4/29/26 18:07,gps,15.6,1020.0,15.8,47.0,0.0,0.0,0.0,0.0,0.0,0.0,0.0,0.0,53.269394,-9.077369,27.4,17,1,,
270,272,1777486065.029,4/29/26 19:07,1777486064,4/29/26 18:07,gps,15.6,1020.0,15.8,47.0,0.0,0.0,0.0,0.0,0.0,0.0,0.0,0.0,53.269394,-9.077369,27.4,17,1,,
271,273,1777486066.036,4/29/26 19:07,1777486065,4/29/26 18:07,gps,15.6,1020.0,15.8,47.0,0.0,0.0,0.0,0.0,0.0,0.0,0.0,0.0,53.269394,-9.077369,27.4,17,1,,
272,274,1777486067.051,4/29/26 19:07,1777486066,4/29/26 18:07,gps,15.6,1020.0,15.8,47.0,0.0,0.0,0.0,0.0,0.0,0.0,0.0,0.0,53.269394,-9.077368,27.4,17,1,,
273,275,1777486068.036,4/29/26 19:07,1777486067,4/29/26 18:07,gps,15.6,1020.0,15.9,47.0,0.0,0.0,0.0,0.0,0.0,0.0,0.0,0.0,53.269394,-9.077368,27.4,17,1,,
274,276,1777486069.029,4/29/26 19:07,1777486068,4/29/26 18:07,gps,15.6,1020.0,15.9,47.0,0.0,0.0,0.0,0.0,0.0,0.0,0.0,0.0,53.269394,-9.077368,27.4,17,1,,
275,277,1777486070.034,4/29/26 19:07,1777486069,4/29/26 18:07,gps,15.6,1020.0,15.8,47.0,0.0,0.0,0.0,0.0,0.0,0.0,0.0,0.0,53.269394,-9.077368,27.4,17,1,,
276,278,1777486071.03,4/29/26 19:07,1777486070,4/29/26 18:07,gps,15.6,1020.0,15.8,47.0,0.0,0.0,0.0,0.0,0.0,0.0,0.0,0.0,53.269394,-9.077368,27.4,17,1,,
277,279,1777486072.033,4/29/26 19:07,1777486071,4/29/26 18:07,gps,15.6,1020.0,15.8,47.0,0.0,0.0,0.0,0.0,0.0,0.0,0.0,0.0,53.269394,-9.077368,27.3,17,1,,
278,280,1777486073.03,4/29/26 19:07,1777486072,4/29/26 18:07,gps,15.7,1020.0,15.8,47.0,0.0,0.0,0.0,0.0,0.0,0.0,0.0,0.0,53.269394,-9.077368,27.3,17,1,,
279,281,1777486074.038,4/29/26 19:07,1777486073,4/29/26 18:07,gps,15.6,1020.0,15.8,47.0,0.0,0.0,0.0,0.0,0.0,0.0,0.0,0.0,53.269394,-9.077367,27.3,17,1,,
280,282,1777486075.028,4/29/26 19:07,1777486074,4/29/26 18:07,gps,15.7,1020.0,15.8,47.0,0.0,0.0,0.0,0.0,0.0,0.0,0.0,0.0,53.269394,-9.077367,27.3,17,1,,
281,283,1777486076.036,4/29/26 19:07,1777486075,4/29/26 18:07,gps,15.7,1020.0,15.8,47.0,0.0,0.0,0.0,0.0,0.0,0.0,0.0,0.0,53.26939,-9.077367,27.3,17,1,,
282,284,1777486077.027,4/29/26 19:07,1777486076,4/29/26 18:07,gps,15.7,1020.0,15.8,47.0,0.0,0.0,0.0,0.0,0.0,0.0,0.0,0.0,53.26939,-9.077367,27.3,17,1,,
283,285,1777486078.035,4/29/26 19:07,1777486077,4/29/26 18:07,gps,15.7,1020.0,15.8,47.0,0.0,0.0,0.0,0.0,0.0,0.0,0.0,0.0,53.26939,-9.077366,27.3,17,1,,
284,286,1777486079.027,4/29/26 19:07,1777486078,4/29/26 18:07,gps,15.7,1020.0,15.8,47.0,0.0,0.0,0.0,0.0,0.0,0.0,0.0,0.0,53.26939,-9.077366,27.2,17,1,,
285,287,1777486080.034,4/29/26 19:08,1777486079,4/29/26 18:07,gps,15.7,1020.0,15.8,47.0,0.0,0.0,0.0,0.0,0.0,0.0,0.0,0.0,53.26939,-9.077366,27.2,17,1,,
286,288,1777486081.027,4/29/26 19:08,1777486080,4/29/26 18:08,gps,15.7,1020.0,15.8,47.0,0.0,0.0,0.0,0.0,0.0,0.0,0.0,0.0,53.26939,-9.077366,27.2,17,1,,
287,289,1777486082.034,4/29/26 19:08,1777486081,4/29/26 18:08,gps,15.6,1020.0,15.8,47.0,0.0,0.0,0.0,0.0,0.0,0.0,0.0,0.0,53.26939,-9.077366,27.2,17,1,,
288,290,1777486083.027,4/29/26 19:08,1777486082,4/29/26 18:08,gps,15.7,1020.0,15.8,47.0,0.0,0.0,0.0,0.0,0.0,0.0,0.0,0.0,53.26939,-9.077366,27.2,17,1,,
289,291,1777486084.035,4/29/26 19:08,1777486083,4/29/26 18:08,gps,15.7,1020.0,15.8,47.1,0.0,0.0,0.0,0.0,0.0,0.0,0.0,0.0,53.26939,-9.077365,27.2,17,1,,
290,292,1777486085.027,4/29/26 19:08,1777486084,4/29/26 18:08,gps,15.7,1020.0,15.8,47.1,0.0,0.0,0.0,0.0,0.0,0.0,0.0,0.0,53.26939,-9.077365,27.2,17,1,,
291,293,1777486086.035,4/29/26 19:08,1777486085,4/29/26 18:08,gps,15.7,1020.0,15.8,47.1,0.0,0.0,0.0,0.0,0.0,0.0,0.0,0.0,53.26939,-9.077365,27.1,17,1,,
292,294,1777486087.027,4/29/26 19:08,1777486086,4/29/26 18:08,gps,15.7,1020.0,15.8,47.1,0.0,0.0,0.0,0.0,0.0,0.0,0.0,0.0,53.26939,-9.077365,27.1,17,1,,
293,295,1777486088.033,4/29/26 19:08,1777486087,4/29/26 18:08,gps,15.7,1020.0,15.8,47.3,0.0,0.0,0.0,0.0,0.0,0.0,0.0,0.0,53.26939,-9.077364,27.1,17,1,,
294,296,1777486089.033,4/29/26 19:08,1777486088,4/29/26 18:08,gps,15.7,1020.0,15.8,47.3,0.0,0.0,0.0,0.0,0.0,0.0,0.0,0.0,53.26939,-9.077364,27.1,17,1,,
295,297,1777486090.033,4/29/26 19:08,1777486089,4/29/26 18:08,gps,15.7,1020.0,15.8,47.2,0.0,0.0,0.0,0.0,0.0,0.0,0.0,0.0,53.26939,-9.077364,27.1,17,1,,
296,298,1777486091.027,4/29/26 19:08,1777486090,4/29/26 18:08,gps,15.7,1020.0,15.8,47.2,0.0,0.0,0.0,0.0,0.0,0.0,0.0,0.0,53.26939,-9.077363,27.1,17,1,,
297,299,1777486092.033,4/29/26 19:08,1777486091,4/29/26 18:08,gps,15.7,1020.0,15.8,47.2,0.0,0.0,0.0,0.0,0.0,0.0,0.0,0.0,53.26939,-9.077363,27.1,17,1,,
298,300,1777486093.027,4/29/26 19:08,1777486092,4/29/26 18:08,gps,15.7,1020.0,15.8,47.2,0.0,0.0,0.0,0.0,0.0,0.0,0.0,0.0,53.26939,-9.077363,27.0,17,1,,
299,301,1777486094.036,4/29/26 19:08,1777486093,4/29/26 18:08,gps,15.7,1020.0,15.8,47.2,0.0,0.0,0.0,0.0,0.0,0.0,0.0,0.0,53.26939,-9.077363,27.0,17,1,,
300,302,1777486095.029,4/29/26 19:08,1777486094,4/29/26 18:08,gps,15.7,1020.0,15.8,47.2,0.0,0.0,0.0,0.0,0.0,0.0,0.0,0.0,53.26939,-9.077363,27.0,17,1,,
301,303,1777486096.041,4/29/26 19:08,1777486095,4/29/26 18:08,gps,15.7,1020.0,15.8,47.1,0.0,0.0,0.0,0.0,0.0,0.0,0.0,0.0,53.26939,-9.077362,27.0,18,1,,
302,304,1777486097.029,4/29/26 19:08,1777486096,4/29/26 18:08,gps,15.7,1020.0,15.8,47.1,0.0,0.0,0.0,0.0,0.0,0.0,0.0,0.0,53.26939,-9.077362,27.0,18,1,,
303,305,1777486098.033,4/29/26 19:08,1777486097,4/29/26 18:08,gps,15.7,1020.0,15.8,47.1,0.0,0.0,0.0,0.0,0.0,0.0,0.0,0.0,53.26939,-9.077362,27.0,17,1,,
304,306,1777486099.027,4/29/26 19:08,1777486098,4/29/26 18:08,gps,15.7,1020.0,15.8,47.1,0.0,0.0,0.0,0.0,0.0,0.0,0.0,0.0,53.26939,-9.077362,27.0,18,1,,
305,307,1777486100.033,4/29/26 19:08,1777486099,4/29/26 18:08,gps,15.7,1020.0,15.9,47.2,0.0,0.0,0.0,0.0,0.0,0.0,0.0,0.0,53.269386,-9.077362,27.0,18,1,,
306,308,1777486101.027,4/29/26 19:08,1777486100,4/29/26 18:08,gps,15.7,1020.0,15.9,47.2,0.0,0.0,0.0,0.0,0.0,0.0,0.0,0.0,53.269386,-9.077362,27.0,18,1,,
307,309,1777486102.033,4/29/26 19:08,1777486101,4/29/26 18:08,gps,15.8,1020.0,15.9,47.1,0.0,0.0,0.0,0.0,0.0,0.0,0.0,0.0,53.269386,-9.077361,27.0,18,1,,
308,310,1777486103.027,4/29/26 19:08,1777486102,4/29/26 18:08,gps,15.8,1020.0,15.9,47.1,0.0,0.0,0.0,0.0,0.0,0.0,0.0,0.0,53.269386,-9.077361,27.0,18,1,,
309,311,1777486104.033,4/29/26 19:08,1777486103,4/29/26 18:08,gps,15.8,1020.0,15.9,47.1,0.0,0.0,0.0,0.0,0.0,0.0,0.0,0.0,53.269386,-9.077361,27.0,18,1,,
310,312,1777486105.027,4/29/26 19:08,1777486104,4/29/26 18:08,gps,15.8,1020.0,15.9,47.1,0.0,0.0,0.0,0.0,0.0,0.0,0.0,0.0,53.269386,-9.077361,27.0,18,1,,
311,313,1777486106.033,4/29/26 19:08,1777486105,4/29/26 18:08,gps,15.8,1020.0,15.9,47.1,0.0,0.0,0.0,0.0,0.0,0.0,0.0,0.0,53.269386,-9.07736,27.0,18,1,,
312,314,1777486107.029,4/29/26 19:08,1777486106,4/29/26 18:08,gps,15.8,1020.0,15.9,47.1,0.0,0.0,0.0,0.0,0.0,0.0,0.0,0.0,53.269386,-9.07736,27.0,18,1,,
313,315,1777486108.033,4/29/26 19:08,1777486107,4/29/26 18:08,gps,15.8,1020.0,15.8,47.1,0.0,0.0,0.0,0.0,0.0,0.0,0.0,0.0,53.269386,-9.07736,27.0,18,1,,
314,316,1777486109.027,4/29/26 19:08,1777486108,4/29/26 18:08,gps,15.8,1020.0,15.8,47.1,0.0,0.0,0.0,0.0,0.0,0.0,0.0,0.0,53.269386,-9.07736,27.0,18,1,,
315,317,1777486110.037,4/29/26 19:08,1777486109,4/29/26 18:08,gps,15.8,1020.0,15.9,47.2,0.0,0.0,0.0,0.0,0.0,0.0,0.0,0.0,53.269386,-9.07736,27.0,18,1,,
316,318,1777486111.027,4/29/26 19:08,1777486110,4/29/26 18:08,gps,15.8,1020.0,15.9,47.2,0.0,0.0,0.0,0.0,0.0,0.0,0.0,0.0,53.269386,-9.07736,27.0,18,1,,
317,319,1777486112.033,4/29/26 19:08,1777486111,4/29/26 18:08,gps,15.8,1020.0,15.9,47.3,0.0,0.0,0.0,0.0,0.0,0.0,0.0,0.0,53.269386,-9.07736,27.0,18,1,,
318,320,1777486113.029,4/29/26 19:08,1777486112,4/29/26 18:08,gps,15.8,1020.0,15.9,47.3,0.0,0.0,0.0,0.0,0.0,0.0,0.0,0.0,53.269386,-9.07736,27.0,18,1,,
319,321,1777486114.033,4/29/26 19:08,1777486113,4/29/26 18:08,gps,15.8,1020.0,15.9,47.3,0.0,0.0,0.0,0.0,0.0,0.0,0.0,0.0,53.269386,-9.07736,26.9,18,1,,
320,322,1777486115.027,4/29/26 19:08,1777486114,4/29/26 18:08,gps,15.8,1020.0,15.9,47.3,0.0,0.0,0.0,0.0,0.0,0.0,0.0,0.0,53.269386,-9.07736,26.9,18,1,,
321,323,1777486116.039,4/29/26 19:08,1777486115,4/29/26 18:08,gps,15.8,1020.0,15.9,47.3,0.0,0.0,0.0,0.0,0.0,0.0,0.0,0.0,53.269386,-9.07736,26.9,18,1,,
322,324,1777486117.029,4/29/26 19:08,1777486116,4/29/26 18:08,gps,15.8,1020.0,15.9,47.3,0.0,0.0,0.0,0.0,0.0,0.0,0.0,0.0,53.269386,-9.07736,26.9,18,1,,
323,325,1777486118.039,4/29/26 19:08,1777486117,4/29/26 18:08,gps,15.8,1020.0,15.9,47.3,0.0,0.0,0.0,0.0,0.0,0.0,0.0,0.0,53.269386,-9.077359,26.9,18,1,,
324,326,1777486119.027,4/29/26 19:08,1777486118,4/29/26 18:08,gps,15.8,1020.0,15.9,47.3,0.0,0.0,0.0,0.0,0.0,0.0,0.0,0.0,53.269386,-9.077359,26.9,18,1,,
325,327,1777486120.033,4/29/26 19:08,1777486119,4/29/26 18:08,gps,15.8,1020.0,15.9,47.2,0.0,0.0,0.0,0.0,0.0,0.0,0.0,0.0,53.269386,-9.077359,26.9,18,1,,
326,328,1777486121.026,4/29/26 19:08,1777486120,4/29/26 18:08,gps,15.8,1020.0,15.9,47.2,0.0,0.0,0.0,0.0,0.0,0.0,0.0,0.0,53.269386,-9.077359,26.9,18,1,,
327,329,1777486122.033,4/29/26 19:08,1777486121,4/29/26 18:08,gps,15.8,1020.0,15.9,47.1,0.0,0.0,0.0,0.0,0.0,0.0,0.0,0.0,53.269386,-9.077359,26.9,18,1,,
328,330,1777486123.027,4/29/26 19:08,1777486122,4/29/26 18:08,gps,15.8,1020.0,15.9,47.1,0.0,0.0,0.0,0.0,0.0,0.0,0.0,0.0,53.269386,-9.077359,26.9,18,1,,
329,331,1777486124.033,4/29/26 19:08,1777486123,4/29/26 18:08,gps,15.8,1020.0,15.9,47.1,0.0,0.0,0.0,0.0,0.0,0.0,0.0,0.0,53.269386,-9.077359,26.9,18,1,,
330,332,1777486125.027,4/29/26 19:08,1777486124,4/29/26 18:08,gps,15.8,1020.0,15.9,47.1,0.0,0.0,0.0,0.0,0.0,0.0,0.0,0.0,53.269386,-9.077359,26.9,18,1,,
331,333,1777486126.033,4/29/26 19:08,1777486125,4/29/26 18:08,gps,15.8,1020.0,15.9,47.3,0.0,0.0,0.0,0.0,0.0,0.0,0.0,0.0,53.269386,-9.077359,26.8,18,1,,
332,334,1777486127.027,4/29/26 19:08,1777486126,4/29/26 18:08,gps,15.8,1020.0,15.9,47.3,0.0,0.0,0.0,0.0,0.0,0.0,0.0,0.0,53.269386,-9.077359,26.8,18,1,,
333,335,1777486128.033,4/29/26 19:08,1777486127,4/29/26 18:08,gps,15.8,1020.0,15.9,47.5,0.0,0.0,0.0,0.0,0.0,0.0,0.0,0.0,53.269386,-9.077359,26.8,18,1,,
334,336,1777486129.026,4/29/26 19:08,1777486128,4/29/26 18:08,gps,15.8,1020.0,15.9,47.5,0.0,0.0,0.0,0.0,0.0,0.0,0.0,0.0,53.269386,-9.077359,26.8,18,1,,
335,337,1777486130.033,4/29/26 19:08,1777486129,4/29/26 18:08,gps,15.8,1020.0,15.9,47.4,0.0,0.0,0.0,0.0,0.0,0.0,0.0,0.0,53.269386,-9.077359,26.8,18,1,,
336,338,1777486131.026,4/29/26 19:08,1777486130,4/29/26 18:08,gps,15.8,1020.0,15.9,47.4,0.0,0.0,0.0,0.0,0.0,0.0,0.0,0.0,53.26939,-9.07736,26.8,18,1,,
337,339,1777486132.033,4/29/26 19:08,1777486131,4/29/26 18:08,gps,15.8,1020.0,15.9,47.4,0.0,0.0,0.0,0.0,0.0,0.0,0.0,0.0,53.26939,-9.07736,26.8,18,1,,
338,340,1777486133.026,4/29/26 19:08,1777486132,4/29/26 18:08,gps,15.8,1020.0,15.9,47.4,0.0,0.0,0.0,0.0,0.0,0.0,0.0,0.0,53.26939,-9.07736,26.8,18,1,,
339,341,1777486134.033,4/29/26 19:08,1777486133,4/29/26 18:08,gps,15.8,1020.0,15.9,47.5,0.0,0.0,0.0,0.0,0.0,0.0,0.0,0.0,53.26939,-9.07736,26.8,18,1,,
340,342,1777486135.026,4/29/26 19:08,1777486134,4/29/26 18:08,gps,15.8,1020.0,15.9,47.5,0.0,0.0,0.0,0.0,0.0,0.0,0.0,0.0,53.26939,-9.07736,26.8,18,1,,
341,343,1777486136.033,4/29/26 19:08,1777486135,4/29/26 18:08,gps,15.8,1020.0,15.9,47.5,0.0,0.0,0.0,0.0,0.0,0.0,0.0,0.0,53.26939,-9.077361,26.8,18,1,,
342,344,1777486137.029,4/29/26 19:08,1777486136,4/29/26 18:08,gps,15.8,1020.0,15.9,47.5,0.0,0.0,0.0,0.0,0.0,0.0,0.0,0.0,53.26939,-9.077361,26.8,18,1,,
343,345,1777486138.033,4/29/26 19:08,1777486137,4/29/26 18:08,gps,15.8,1020.0,15.9,47.5,0.0,0.0,0.0,0.0,0.0,0.0,0.0,0.0,53.26939,-9.077361,26.8,18,1,,
344,346,1777486139.028,4/29/26 19:08,1777486138,4/29/26 18:08,gps,15.8,1020.0,15.9,47.5,0.0,0.0,0.0,0.0,0.0,0.0,0.0,0.0,53.26939,-9.077361,26.8,18,1,,
345,347,1777486140.032,4/29/26 19:09,1777486139,4/29/26 18:08,gps,15.8,1020.0,15.9,47.5,0.0,0.0,0.0,0.0,0.0,0.0,0.0,0.0,53.26939,-9.077361,26.8,18,1,,
346,348,1777486141.026,4/29/26 19:09,1777486140,4/29/26 18:08,gps,15.8,1020.0,15.9,47.5,0.0,0.0,0.0,0.0,0.0,0.0,0.0,0.0,53.26939,-9.07736,26.9,18,1,,
347,349,1777486142.033,4/29/26 19:09,1777486141,4/29/26 18:09,gps,15.8,1020.0,15.9,47.5,0.0,0.0,0.0,0.0,0.0,0.0,0.0,0.0,53.26939,-9.07736,26.9,18,1,,
348,350,1777486143.026,4/29/26 19:09,1777486142,4/29/26 18:09,gps,15.8,1020.0,15.9,47.5,0.0,0.0,0.0,0.0,0.0,0.0,0.0,0.0,53.26939,-9.07736,26.9,18,1,,
349,351,1777486144.035,4/29/26 19:09,1777486143,4/29/26 18:09,gps,15.8,1020.0,15.9,47.5,0.0,0.0,0.0,0.0,0.0,0.0,0.0,0.0,53.26939,-9.07736,26.9,18,1,,
350,352,1777486145.029,4/29/26 19:09,1777486144,4/29/26 18:09,gps,15.8,1020.0,15.9,47.5,0.0,0.0,0.0,0.0,0.0,0.0,0.0,0.0,53.26939,-9.07736,26.9,18,1,,
351,353,1777486146.032,4/29/26 19:09,1777486145,4/29/26 18:09,gps,15.8,1020.0,15.9,47.5,0.0,0.0,0.0,0.0,0.0,0.0,0.0,0.0,53.26939,-9.077361,26.9,18,1,,
352,354,1777486147.026,4/29/26 19:09,1777486146,4/29/26 18:09,gps,15.8,1020.0,15.9,47.5,0.0,0.0,0.0,0.0,0.0,0.0,0.0,0.0,53.26939,-9.077361,26.9,18,1,,
353,355,1777486148.033,4/29/26 19:09,1777486147,4/29/26 18:09,gps,15.8,1020.0,15.9,47.5,0.0,0.0,0.0,0.0,0.0,0.0,0.0,0.0,53.26939,-9.077361,26.9,18,1,,
354,356,1777486149.026,4/29/26 19:09,1777486148,4/29/26 18:09,gps,15.8,1020.0,15.9,47.5,0.0,0.0,0.0,0.0,0.0,0.0,0.0,0.0,53.26939,-9.077361,26.9,18,1,,
355,357,1777486150.032,4/29/26 19:09,1777486149,4/29/26 18:09,gps,15.8,1020.0,15.9,47.5,0.0,0.0,0.0,0.0,0.0,0.0,0.0,0.0,53.26939,-9.077361,26.9,18,1,,
356,358,1777486151.026,4/29/26 19:09,1777486150,4/29/26 18:09,gps,15.8,1020.0,15.9,47.5,0.0,0.0,0.0,0.0,0.0,0.0,0.0,0.0,53.26939,-9.077361,26.9,18,1,,
357,359,1777486152.032,4/29/26 19:09,1777486151,4/29/26 18:09,gps,15.8,1020.0,15.9,47.6,0.0,0.0,0.0,0.0,0.0,0.0,0.0,0.0,53.26939,-9.077361,26.9,18,1,,
358,360,1777486153.026,4/29/26 19:09,1777486152,4/29/26 18:09,gps,15.8,1020.0,15.9,47.6,0.0,0.0,0.0,0.0,0.0,0.0,0.0,0.0,53.26939,-9.077361,26.9,18,1,,
359,361,1777486154.033,4/29/26 19:09,1777486153,4/29/26 18:09,gps,15.9,1020.0,15.9,47.6,0.0,0.0,0.0,0.0,0.0,0.0,0.0,0.0,53.26939,-9.077361,26.9,18,1,,
360,362,1777486155.026,4/29/26 19:09,1777486154,4/29/26 18:09,gps,15.9,1020.0,15.9,47.6,0.0,0.0,0.0,0.0,0.0,0.0,0.0,0.0,53.26939,-9.077361,26.9,18,1,,
361,363,1777486156.032,4/29/26 19:09,1777486155,4/29/26 18:09,gps,15.9,1020.0,15.9,47.6,0.0,0.0,0.0,0.0,0.0,0.0,0.0,0.0,53.26939,-9.077361,26.9,18,1,,
362,364,1777486157.026,4/29/26 19:09,1777486156,4/29/26 18:09,gps,15.8,1020.0,15.9,47.6,0.0,0.0,0.0,0.0,0.0,0.0,0.0,0.0,53.26939,-9.077361,26.9,18,1,,
363,365,1777486158.036,4/29/26 19:09,1777486157,4/29/26 18:09,gps,15.8,1020.0,15.9,47.6,0.0,0.0,0.0,0.0,0.0,0.0,0.0,0.0,53.26939,-9.077361,26.9,18,1,,
364,366,1777486159.028,4/29/26 19:09,1777486158,4/29/26 18:09,gps,15.8,1020.0,15.9,47.6,0.0,0.0,0.0,0.0,0.0,0.0,0.0,0.0,53.26939,-9.077361,26.9,18,1,,
365,367,1777486160.033,4/29/26 19:09,1777486159,4/29/26 18:09,gps,15.8,1020.0,15.9,47.6,0.0,0.0,0.0,0.0,0.0,0.0,0.0,0.0,53.26939,-9.077361,26.9,17,1,,
366,368,1777486161.026,4/29/26 19:09,1777486160,4/29/26 18:09,gps,15.8,1020.0,15.9,47.6,0.0,0.0,0.0,0.0,0.0,0.0,0.0,0.0,53.26939,-9.077361,26.9,17,1,,
367,369,1777486162.033,4/29/26 19:09,1777486161,4/29/26 18:09,gps,15.8,1020.0,15.9,47.5,0.0,0.0,0.0,0.0,0.0,0.0,0.0,0.0,53.26939,-9.077361,26.9,17,1,,
368,370,1777486163.027,4/29/26 19:09,1777486162,4/29/26 18:09,gps,15.8,1020.0,15.9,47.5,0.0,0.0,0.0,0.0,0.0,0.0,0.0,0.0,53.26939,-9.077361,26.9,17,1,,
369,371,1777486164.032,4/29/26 19:09,1777486163,4/29/26 18:09,gps,15.8,1020.0,15.9,47.4,0.0,0.0,0.0,0.0,0.0,0.0,0.0,0.0,53.26939,-9.077361,26.9,17,1,,
370,372,1777486165.026,4/29/26 19:09,1777486164,4/29/26 18:09,gps,15.8,1020.0,15.9,47.4,0.0,0.0,0.0,0.0,0.0,0.0,0.0,0.0,53.26939,-9.07736,26.9,17,1,,
371,373,1777486166.032,4/29/26 19:09,1777486165,4/29/26 18:09,gps,15.8,1020.0,15.9,47.4,0.0,0.0,0.0,0.0,0.0,0.0,0.0,0.0,53.26939,-9.07736,26.9,17,1,,
372,374,1777486167.026,4/29/26 19:09,1777486166,4/29/26 18:09,gps,15.8,1020.0,15.9,47.4,0.0,0.0,0.0,0.0,0.0,0.0,0.0,0.0,53.26939,-9.07736,26.9,17,1,,
373,375,1777486168.032,4/29/26 19:09,1777486167,4/29/26 18:09,gps,15.8,1020.0,15.9,47.3,0.0,0.0,0.0,0.0,0.0,0.0,0.0,0.0,53.26939,-9.07736,26.9,17,1,,
374,376,1777486169.026,4/29/26 19:09,1777486168,4/29/26 18:09,gps,15.8,1020.0,15.9,47.3,0.0,0.0,0.0,0.0,0.0,0.0,0.0,0.0,53.26939,-9.07736,26.9,17,1,,
375,377,1777486170.032,4/29/26 19:09,1777486169,4/29/26 18:09,gps,15.8,1020.0,15.9,47.2,0.0,0.0,0.0,0.0,0.0,0.0,0.0,0.0,53.26939,-9.077359,26.9,17,1,,
376,378,1777486171.026,4/29/26 19:09,1777486170,4/29/26 18:09,gps,15.8,1020.0,15.9,47.2,0.0,0.0,0.0,0.0,0.0,0.0,0.0,0.0,53.26939,-9.077359,26.9,17,1,,
377,379,1777486172.032,4/29/26 19:09,1777486171,4/29/26 18:09,gps,15.8,1020.0,15.9,47.2,0.0,0.0,0.0,0.0,0.0,0.0,0.0,0.0,53.26939,-9.077359,26.9,17,1,,
378,380,1777486173.026,4/29/26 19:09,1777486172,4/29/26 18:09,gps,15.8,1020.0,15.9,47.2,0.0,0.0,0.0,0.0,0.0,0.0,0.0,0.0,53.26939,-9.077359,26.9,17,1,,
379,381,1777486174.036,4/29/26 19:09,1777486173,4/29/26 18:09,gps,15.8,1020.0,15.9,47.1,0.0,0.0,0.0,0.0,0.0,0.0,0.0,0.0,53.26939,-9.077359,26.9,17,1,,
380,382,1777486175.026,4/29/26 19:09,1777486174,4/29/26 18:09,gps,15.8,1020.0,15.9,47.1,0.0,0.0,0.0,0.0,0.0,0.0,0.0,0.0,53.26939,-9.077359,26.9,17,1,,
381,383,1777486176.032,4/29/26 19:09,1777486175,4/29/26 18:09,gps,15.8,1020.0,15.9,47.1,0.0,0.0,0.0,0.0,0.0,0.0,0.0,0.0,53.26939,-9.077359,26.9,17,1,,
382,384,1777486177.026,4/29/26 19:09,1777486176,4/29/26 18:09,gps,15.8,1020.0,15.9,47.1,0.0,0.0,0.0,0.0,0.0,0.0,0.0,0.0,53.26939,-9.077359,26.9,17,1,,
383,385,1777486178.036,4/29/26 19:09,1777486177,4/29/26 18:09,gps,15.8,1020.0,15.9,47.1,0.0,0.0,0.0,0.0,0.0,0.0,0.0,0.0,53.26939,-9.077359,26.9,17,1,,
384,386,1777486179.026,4/29/26 19:09,1777486178,4/29/26 18:09,gps,15.8,1020.0,15.9,47.1,0.0,0.0,0.0,0.0,0.0,0.0,0.0,0.0,53.26939,-9.077359,26.9,16,1,,
385,387,1777486180.032,4/29/26 19:09,1777486179,4/29/26 18:09,gps,15.8,1020.0,15.9,47.0,0.0,0.0,0.0,0.0,0.0,0.0,0.0,0.0,53.26939,-9.077359,26.9,16,1,,
386,388,1777486181.026,4/29/26 19:09,1777486180,4/29/26 18:09,gps,15.8,1020.0,15.9,47.0,0.0,0.0,0.0,0.0,0.0,0.0,0.0,0.0,53.26939,-9.077359,26.9,16,1,,
387,389,1777486182.032,4/29/26 19:09,1777486181,4/29/26 18:09,gps,15.8,1020.0,15.9,47.0,0.0,0.0,0.0,0.0,0.0,0.0,0.0,0.0,53.26939,-9.077359,26.9,16,1,,
388,390,1777486183.026,4/29/26 19:09,1777486182,4/29/26 18:09,gps,15.8,1020.0,15.9,47.0,0.0,0.0,0.0,0.0,0.0,0.0,0.0,0.0,53.26939,-9.077359,26.9,17,1,,
389,391,1777486184.032,4/29/26 19:09,1777486183,4/29/26 18:09,gps,15.8,1020.0,15.9,47.0,0.0,0.0,0.0,0.0,0.0,0.0,0.0,0.0,53.269394,-9.077359,26.9,18,1,,
390,392,1777486185.026,4/29/26 19:09,1777486184,4/29/26 18:09,gps,15.8,1020.0,15.9,47.0,0.0,0.0,0.0,0.0,0.0,0.0,0.0,0.0,53.269394,-9.077359,26.9,18,1,,
391,393,1777486186.034,4/29/26 19:09,1777486185,4/29/26 18:09,gps,15.8,1020.0,15.9,47.0,0.0,0.0,0.0,0.0,0.0,0.0,0.0,0.0,53.269394,-9.077359,26.9,18,1,,
392,394,1777486187.026,4/29/26 19:09,1777486186,4/29/26 18:09,gps,15.8,1020.0,15.9,47.0,0.0,0.0,0.0,0.0,0.0,0.0,0.0,0.0,53.269394,-9.077359,26.9,18,1,,
393,395,1777486188.034,4/29/26 19:09,1777486187,4/29/26 18:09,gps,15.8,1020.0,15.9,47.0,0.0,0.0,0.0,0.0,0.0,0.0,0.0,0.0,53.269394,-9.077359,26.9,18,1,,
394,396,1777486189.025,4/29/26 19:09,1777486188,4/29/26 18:09,gps,15.8,1020.0,15.9,47.0,0.0,0.0,0.0,0.0,0.0,0.0,0.0,0.0,53.269394,-9.077358,26.9,18,1,,
395,397,1777486190.032,4/29/26 19:09,1777486189,4/29/26 18:09,gps,15.8,1020.0,15.9,47.1,0.0,0.0,0.0,0.0,0.0,0.0,0.0,0.0,53.269394,-9.077358,27.0,18,1,,
396,398,1777486191.026,4/29/26 19:09,1777486190,4/29/26 18:09,gps,15.8,1020.0,15.9,47.1,0.0,0.0,0.0,0.0,0.0,0.0,0.0,0.0,53.269394,-9.077358,26.9,18,1,,
397,399,1777486192.032,4/29/26 19:09,1777486191,4/29/26 18:09,gps,15.8,1020.0,15.9,47.1,0.0,0.0,0.0,0.0,0.0,0.0,0.0,0.0,53.269394,-9.077358,27.0,18,1,,
398,400,1777486193.029,4/29/26 19:09,1777486192,4/29/26 18:09,gps,15.8,1020.0,15.9,47.1,0.0,0.0,0.0,0.0,0.0,0.0,0.0,0.0,53.269394,-9.077358,27.0,18,1,,
399,401,1777486194.031,4/29/26 19:09,1777486193,4/29/26 18:09,gps,15.8,1020.0,15.9,47.2,0.0,0.0,0.0,0.0,0.0,0.0,0.0,0.0,53.269394,-9.077358,26.9,18,1,,
400,402,1777486195.025,4/29/26 19:09,1777486194,4/29/26 18:09,gps,15.8,1020.0,15.9,47.2,0.0,0.0,0.0,0.0,0.0,0.0,0.0,0.0,53.269394,-9.077358,26.9,18,1,,
401,403,1777486196.031,4/29/26 19:09,1777486195,4/29/26 18:09,gps,15.8,1020.0,15.9,47.3,0.0,0.0,0.0,0.0,0.0,0.0,0.0,0.0,53.269394,-9.077358,26.9,18,1,,
402,404,1777486197.026,4/29/26 19:09,1777486196,4/29/26 18:09,gps,15.8,1020.0,15.9,47.3,0.0,0.0,0.0,0.0,0.0,0.0,0.0,0.0,53.269394,-9.077357,26.9,18,1,,
403,405,1777486198.034,4/29/26 19:09,1777486197,4/29/26 18:09,gps,15.8,1020.0,15.9,47.3,0.0,0.0,0.0,0.0,0.0,0.0,0.0,0.0,53.269394,-9.077357,26.9,18,1,,
404,406,1777486199.025,4/29/26 19:09,1777486198,4/29/26 18:09,gps,15.8,1020.0,15.9,47.3,0.0,0.0,0.0,0.0,0.0,0.0,0.0,0.0,53.269394,-9.077357,26.9,18,1,,
405,407,1777486200.032,4/29/26 19:09,1777486199,4/29/26 18:09,gps,15.8,1020.0,15.9,47.4,0.0,0.0,0.0,0.0,0.0,0.0,0.0,0.0,53.269394,-9.077357,26.9,18,1,,
406,408,1777486201.028,4/29/26 19:10,1777486200,4/29/26 18:10,gps,15.8,1020.0,15.9,47.4,0.0,0.0,0.0,0.0,0.0,0.0,0.0,0.0,53.269394,-9.077357,26.9,18,1,,
407,409,1777486202.031,4/29/26 19:10,1777486201,4/29/26 18:10,gps,15.8,1020.0,15.9,47.5,0.0,0.0,0.0,0.0,0.0,0.0,0.0,0.0,53.269394,-9.077357,26.9,18,1,,
408,410,1777486203.025,4/29/26 19:10,1777486202,4/29/26 18:10,gps,15.8,1020.0,15.9,47.5,0.0,0.0,0.0,0.0,0.0,0.0,0.0,0.0,53.269394,-9.077356,26.9,18,1,,
409,411,1777486204.031,4/29/26 19:10,1777486203,4/29/26 18:10,gps,15.8,1020.0,15.9,47.5,0.0,0.0,0.0,0.0,0.0,0.0,0.0,0.0,53.269394,-9.077356,26.9,18,1,,
410,412,1777486205.025,4/29/26 19:10,1777486204,4/29/26 18:10,gps,15.8,1020.0,15.9,47.5,0.0,0.0,0.0,0.0,0.0,0.0,0.0,0.0,53.269394,-9.077356,26.9,18,1,,
411,413,1777486206.033,4/29/26 19:10,1777486205,4/29/26 18:10,gps,15.8,1020.0,15.9,47.5,0.0,0.0,0.0,0.0,0.0,0.0,0.0,0.0,53.269394,-9.077355,26.9,18,1,,
412,414,1777486207.025,4/29/26 19:10,1777486206,4/29/26 18:10,gps,15.8,1020.0,15.9,47.5,0.0,0.0,0.0,0.0,0.0,0.0,0.0,0.0,53.269394,-9.077355,26.9,18,1,,
413,415,1777486208.032,4/29/26 19:10,1777486207,4/29/26 18:10,gps,15.8,1020.0,15.9,47.5,0.0,0.0,0.0,0.0,0.0,0.0,0.0,0.0,53.269394,-9.077355,26.9,18,1,,
414,416,1777486209.028,4/29/26 19:10,1777486208,4/29/26 18:10,gps,15.8,1020.0,15.9,47.5,0.0,0.0,0.0,0.0,0.0,0.0,0.0,0.0,53.269394,-9.077355,26.9,18,1,,
415,417,1777486210.031,4/29/26 19:10,1777486209,4/29/26 18:10,gps,15.8,1020.0,15.9,47.5,0.0,0.0,0.0,0.0,0.0,0.0,0.0,0.0,53.269394,-9.077354,26.9,18,1,,
416,418,1777486211.025,4/29/26 19:10,1777486210,4/29/26 18:10,gps,15.8,1020.0,15.9,47.5,0.0,0.0,0.0,0.0,0.0,0.0,0.0,0.0,53.269394,-9.077354,26.9,18,1,,
417,419,1777486212.031,4/29/26 19:10,1777486211,4/29/26 18:10,gps,15.8,1020.0,15.9,47.5,0.0,0.0,0.0,0.0,0.0,0.0,0.0,0.0,53.269394,-9.077354,26.9,18,1,,
418,420,1777486213.025,4/29/26 19:10,1777486212,4/29/26 18:10,gps,15.8,1020.0,15.9,47.5,0.0,0.0,0.0,0.0,0.0,0.0,0.0,0.0,53.269394,-9.077354,26.9,18,1,,
419,421,1777486214.032,4/29/26 19:10,1777486213,4/29/26 18:10,gps,15.8,1020.0,15.9,47.5,0.0,0.0,0.0,0.0,0.0,0.0,0.0,0.0,53.269394,-9.077353,26.9,18,1,,
420,422,1777486215.025,4/29/26 19:10,1777486214,4/29/26 18:10,gps,15.8,1020.0,15.9,47.5,0.0,0.0,0.0,0.0,0.0,0.0,0.0,0.0,53.269394,-9.077353,26.9,18,1,,
421,423,1777486216.031,4/29/26 19:10,1777486215,4/29/26 18:10,gps,15.8,1020.0,15.9,47.5,0.0,0.0,0.0,0.0,0.0,0.0,0.0,0.0,53.269394,-9.077353,26.9,18,1,,
422,424,1777486217.025,4/29/26 19:10,1777486216,4/29/26 18:10,gps,15.8,1020.0,15.9,47.5,0.0,0.0,0.0,0.0,0.0,0.0,0.0,0.0,53.269394,-9.077353,26.9,18,1,,
423,425,1777486218.031,4/29/26 19:10,1777486217,4/29/26 18:10,gps,15.8,1020.0,15.9,47.4,0.0,0.0,0.0,0.0,0.0,0.0,0.0,0.0,53.269394,-9.077353,26.9,18,1,,
424,426,1777486219.025,4/29/26 19:10,1777486218,4/29/26 18:10,gps,15.8,1020.0,15.9,47.4,0.0,0.0,0.0,0.0,0.0,0.0,0.0,0.0,53.269394,-9.077353,26.9,18,1,,
425,427,1777486220.031,4/29/26 19:10,1777486219,4/29/26 18:10,gps,15.8,1020.0,15.9,47.4,0.0,0.0,0.0,0.0,0.0,0.0,0.0,0.0,53.269394,-9.077353,26.9,18,1,,
426,428,1777486221.025,4/29/26 19:10,1777486220,4/29/26 18:10,gps,15.8,1020.0,15.9,47.4,0.0,0.0,0.0,0.0,0.0,0.0,0.0,0.0,53.269394,-9.077353,26.9,18,1,,
427,429,1777486222.031,4/29/26 19:10,1777486221,4/29/26 18:10,gps,15.8,1020.0,15.9,47.3,0.0,0.0,0.0,0.0,0.0,0.0,0.0,0.0,53.269394,-9.077352,26.9,18,1,,
428,430,1777486223.025,4/29/26 19:10,1777486222,4/29/26 18:10,gps,15.8,1020.0,15.9,47.3,0.0,0.0,0.0,0.0,0.0,0.0,0.0,0.0,53.269394,-9.077352,26.9,18,1,,
429,431,1777486224.031,4/29/26 19:10,1777486223,4/29/26 18:10,gps,15.8,1020.0,15.9,47.3,0.0,0.0,0.0,0.0,0.0,0.0,0.0,0.0,53.269394,-9.077352,26.9,18,1,,
430,432,1777486225.025,4/29/26 19:10,1777486224,4/29/26 18:10,gps,15.8,1020.0,15.9,47.3,0.0,0.0,0.0,0.0,0.0,0.0,0.0,0.0,53.269394,-9.077352,26.9,18,1,,
431,433,1777486226.031,4/29/26 19:10,1777486225,4/29/26 18:10,gps,15.8,1020.0,15.9,47.3,0.0,0.0,0.0,0.0,0.0,0.0,0.0,0.0,53.269394,-9.077352,26.9,18,1,,
432,434,1777486227.025,4/29/26 19:10,1777486226,4/29/26 18:10,gps,15.8,1020.0,15.9,47.3,0.0,0.0,0.0,0.0,0.0,0.0,0.0,0.0,53.269394,-9.077352,26.9,18,1,,
433,435,1777486228.031,4/29/26 19:10,1777486227,4/29/26 18:10,gps,15.8,1020.0,15.9,47.2,0.0,0.0,0.0,0.0,0.0,0.0,0.0,0.0,53.269394,-9.077352,26.9,18,1,,
434,436,1777486229.025,4/29/26 19:10,1777486228,4/29/26 18:10,gps,15.8,1020.0,15.9,47.2,0.0,0.0,0.0,0.0,0.0,0.0,0.0,0.0,53.269394,-9.077352,26.9,18,1,,
435,437,1777486230.031,4/29/26 19:10,1777486229,4/29/26 18:10,gps,15.8,1020.0,15.9,47.2,0.0,0.0,0.0,0.0,0.0,0.0,0.0,0.0,53.269394,-9.077352,26.9,18,1,,
436,438,1777486231.025,4/29/26 19:10,1777486230,4/29/26 18:10,gps,15.8,1020.0,15.9,47.2,0.0,0.0,0.0,0.0,0.0,0.0,0.0,0.0,53.269394,-9.077352,26.9,18,1,,
437,439,1777486232.031,4/29/26 19:10,1777486231,4/29/26 18:10,gps,15.8,1020.0,15.9,47.1,0.0,0.0,0.0,0.0,0.0,0.0,0.0,0.0,53.269394,-9.077352,26.9,18,1,,
438,440,1777486233.025,4/29/26 19:10,1777486232,4/29/26 18:10,gps,15.8,1020.0,15.9,47.1,0.0,0.0,0.0,0.0,0.0,0.0,0.0,0.0,53.269394,-9.077352,26.9,18,1,,
439,441,1777486234.031,4/29/26 19:10,1777486233,4/29/26 18:10,gps,15.8,1020.0,15.9,47.1,0.0,0.0,0.0,0.0,0.0,0.0,0.0,0.0,53.269394,-9.077352,26.9,18,1,,
440,442,1777486235.025,4/29/26 19:10,1777486234,4/29/26 18:10,gps,15.8,1020.0,15.9,47.1,0.0,0.0,0.0,0.0,0.0,0.0,0.0,0.0,53.269394,-9.077352,26.9,18,1,,
441,443,1777486236.034,4/29/26 19:10,1777486235,4/29/26 18:10,gps,15.8,1020.0,15.9,47.1,0.0,0.0,0.0,0.0,0.0,0.0,0.0,0.0,53.269394,-9.077352,26.9,18,1,,
442,444,1777486237.025,4/29/26 19:10,1777486236,4/29/26 18:10,gps,15.8,1020.0,15.9,47.1,0.0,0.0,0.0,0.0,0.0,0.0,0.0,0.0,53.269394,-9.077352,26.9,18,1,,
443,445,1777486238.031,4/29/26 19:10,1777486237,4/29/26 18:10,gps,15.7,1020.0,15.9,47.0,0.0,0.0,0.0,0.0,0.0,0.0,0.0,0.0,53.269394,-9.077351,26.9,18,1,,
444,446,1777486239.025,4/29/26 19:10,1777486238,4/29/26 18:10,gps,15.7,1020.0,15.9,47.0,0.0,0.0,0.0,0.0,0.0,0.0,0.0,0.0,53.269394,-9.077351,26.9,18,1,,
445,447,1777486240.031,4/29/26 19:10,1777486239,4/29/26 18:10,gps,15.7,1020.0,15.9,47.0,0.0,0.0,0.0,0.0,0.0,0.0,0.0,0.0,53.269394,-9.077351,26.9,18,1,,
446,448,1777486241.025,4/29/26 19:10,1777486240,4/29/26 18:10,gps,15.7,1020.0,15.9,47.0,0.0,0.0,0.0,0.0,0.0,0.0,0.0,0.0,53.269394,-9.077351,26.9,18,1,,
447,449,1777486242.031,4/29/26 19:10,1777486241,4/29/26 18:10,gps,15.7,1020.0,15.9,47.0,0.0,0.0,0.0,0.0,0.0,0.0,0.0,0.0,53.269394,-9.077351,26.9,18,1,,
448,450,1777486243.025,4/29/26 19:10,1777486242,4/29/26 18:10,gps,15.7,1020.0,15.9,47.0,0.0,0.0,0.0,0.0,0.0,0.0,0.0,0.0,53.269394,-9.077351,26.9,18,1,,
449,451,1777486244.033,4/29/26 19:10,1777486243,4/29/26 18:10,gps,15.7,1020.0,15.9,47.0,0.0,0.0,0.0,0.0,0.0,0.0,0.0,0.0,53.269394,-9.077351,26.9,18,1,,
450,452,1777486245.025,4/29/26 19:10,1777486244,4/29/26 18:10,gps,15.7,1020.0,15.9,47.0,0.0,0.0,0.0,0.0,0.0,0.0,0.0,0.0,53.269394,-9.077351,26.9,18,1,,
451,453,1777486246.031,4/29/26 19:10,1777486245,4/29/26 18:10,gps,15.8,1020.0,15.9,46.9,0.0,0.0,0.0,0.0,0.0,0.0,0.0,0.0,53.269394,-9.07735,26.9,18,1,,
452,454,1777486247.025,4/29/26 19:10,1777486246,4/29/26 18:10,gps,15.8,1020.0,15.9,46.9,0.0,0.0,0.0,0.0,0.0,0.0,0.0,0.0,53.269394,-9.07735,26.9,18,1,,
453,455,1777486248.031,4/29/26 19:10,1777486247,4/29/26 18:10,gps,15.8,1020.0,15.9,46.9,0.0,0.0,0.0,0.0,0.0,0.0,0.0,0.0,53.269394,-9.07735,26.9,18,1,,
454,456,1777486249.025,4/29/26 19:10,1777486248,4/29/26 18:10,gps,15.8,1020.0,15.9,46.9,0.0,0.0,0.0,0.0,0.0,0.0,0.0,0.0,53.269394,-9.07735,26.9,18,1,,
455,457,1777486250.031,4/29/26 19:10,1777486249,4/29/26 18:10,gps,15.8,1020.0,15.9,46.9,0.0,0.0,0.0,0.0,0.0,0.0,0.0,0.0,53.269394,-9.07735,26.9,18,1,,
456,458,1777486251.025,4/29/26 19:10,1777486250,4/29/26 18:10,gps,15.8,1020.0,15.9,46.9,0.0,0.0,0.0,0.0,0.0,0.0,0.0,0.0,53.269394,-9.07735,26.9,18,1,,
457,459,1777486252.031,4/29/26 19:10,1777486251,4/29/26 18:10,gps,15.8,1020.0,15.9,47.0,0.0,0.0,0.0,0.0,0.0,0.0,0.0,0.0,53.269394,-9.077349,27.0,18,1,,
458,460,1777486253.025,4/29/26 19:10,1777486252,4/29/26 18:10,gps,15.8,1020.0,15.9,47.0,0.0,0.0,0.0,0.0,0.0,0.0,0.0,0.0,53.269394,-9.077349,27.0,18,1,,
459,461,1777486254.033,4/29/26 19:10,1777486253,4/29/26 18:10,gps,15.8,1020.0,15.9,47.0,0.0,0.0,0.0,0.0,0.0,0.0,0.0,0.0,53.269394,-9.077349,27.0,18,1,,
460,462,1777486255.024,4/29/26 19:10,1777486254,4/29/26 18:10,gps,15.8,1020.0,15.9,47.0,0.0,0.0,0.0,0.0,0.0,0.0,0.0,0.0,53.269394,-9.077349,27.0,18,1,,
461,463,1777486256.033,4/29/26 19:10,1777486255,4/29/26 18:10,gps,15.8,1020.0,15.9,47.0,0.0,0.0,0.0,0.0,0.0,0.0,0.0,0.0,53.269394,-9.077349,27.0,18,1,,
462,464,1777486257.025,4/29/26 19:10,1777486256,4/29/26 18:10,gps,15.8,1020.0,15.9,47.0,0.0,0.0,0.0,0.0,0.0,0.0,0.0,0.0,53.269394,-9.077349,27.0,18,1,,
463,465,1777486258.031,4/29/26 19:10,1777486257,4/29/26 18:10,gps,15.8,1020.0,15.9,46.9,0.0,0.0,0.0,0.0,0.0,0.0,0.0,0.0,53.269394,-9.077349,27.0,18,1,,
464,466,1777486259.024,4/29/26 19:10,1777486258,4/29/26 18:10,gps,15.7,1020.0,15.9,46.9,0.0,0.0,0.0,0.0,0.0,0.0,0.0,0.0,53.269394,-9.077349,27.0,18,1,,
465,467,1777486260.031,4/29/26 19:11,1777486259,4/29/26 18:10,gps,15.7,1020.0,15.9,46.9,0.0,0.0,0.0,0.0,0.0,0.0,0.0,0.0,53.269394,-9.077349,27.0,18,1,,
466,468,1777486261.024,4/29/26 19:11,1777486260,4/29/26 18:11,gps,15.7,1020.0,15.9,46.9,0.0,0.0,0.0,0.0,0.0,0.0,0.0,0.0,53.269394,-9.077349,27.0,18,1,,
467,469,1777486262.031,4/29/26 19:11,1777486261,4/29/26 18:11,gps,15.7,1020.0,15.9,46.9,0.0,0.0,0.0,0.0,0.0,0.0,0.0,0.0,53.269394,-9.077349,27.0,18,1,,
468,470,1777486263.025,4/29/26 19:11,1777486262,4/29/26 18:11,gps,15.7,1020.0,15.9,46.9,0.0,0.0,0.0,0.0,0.0,0.0,0.0,0.0,53.269394,-9.077349,27.0,18,1,,
469,471,1777486264.031,4/29/26 19:11,1777486263,4/29/26 18:11,gps,15.7,1020.0,15.9,46.9,0.0,0.0,0.0,0.0,0.0,0.0,0.0,0.0,53.269394,-9.07735,27.0,18,1,,
470,472,1777486265.025,4/29/26 19:11,1777486264,4/29/26 18:11,gps,15.7,1020.0,15.9,46.9,0.0,0.0,0.0,0.0,0.0,0.0,0.0,0.0,53.269394,-9.07735,27.0,18,1,,
471,473,1777486266.031,4/29/26 19:11,1777486265,4/29/26 18:11,gps,15.7,1020.0,15.9,47.0,0.0,0.0,0.0,0.0,0.0,0.0,0.0,0.0,53.269394,-9.07735,27.0,17,1,,
472,474,1777486267.024,4/29/26 19:11,1777486266,4/29/26 18:11,gps,15.7,1020.0,15.9,47.0,0.0,0.0,0.0,0.0,0.0,0.0,0.0,0.0,53.269394,-9.07735,27.0,18,1,,
473,475,1777486268.035,4/29/26 19:11,1777486267,4/29/26 18:11,gps,15.7,1020.0,15.9,47.0,0.0,0.0,0.0,0.0,0.0,0.0,0.0,0.0,53.269394,-9.07735,27.0,18,1,,
474,476,1777486269.024,4/29/26 19:11,1777486268,4/29/26 18:11,gps,15.7,1020.0,15.9,47.0,0.0,0.0,0.0,0.0,0.0,0.0,0.0,0.0,53.269394,-9.07735,27.0,18,1,,
475,477,1777486270.031,4/29/26 19:11,1777486269,4/29/26 18:11,gps,15.7,1020.0,15.9,47.0,0.0,0.0,0.0,0.0,0.0,0.0,0.0,0.0,53.269394,-9.07735,27.0,18,1,,
476,478,1777486271.024,4/29/26 19:11,1777486270,4/29/26 18:11,gps,15.7,1020.0,15.9,47.0,0.0,0.0,0.0,0.0,0.0,0.0,0.0,0.0,53.269394,-9.07735,27.0,18,1,,
477,479,1777486272.03,4/29/26 19:11,1777486271,4/29/26 18:11,gps,15.7,1020.0,15.9,47.0,0.0,0.0,0.0,0.0,0.0,0.0,0.0,0.0,53.269394,-9.07735,27.0,18,1,,
478,480,1777486273.024,4/29/26 19:11,1777486272,4/29/26 18:11,gps,15.7,1020.0,15.9,47.0,0.0,0.0,0.0,0.0,0.0,0.0,0.0,0.0,53.269394,-9.07735,27.0,18,1,,
479,481,1777486274.031,4/29/26 19:11,1777486273,4/29/26 18:11,gps,15.7,1020.0,15.9,47.0,0.0,0.0,0.0,0.0,0.0,0.0,0.0,0.0,53.269394,-9.07735,27.0,18,1,,
480,482,1777486275.024,4/29/26 19:11,1777486274,4/29/26 18:11,gps,15.7,1020.0,15.9,47.0,0.0,0.0,0.0,0.0,0.0,0.0,0.0,0.0,53.269394,-9.077349,27.0,18,1,,
481,483,1777486276.03,4/29/26 19:11,1777486275,4/29/26 18:11,gps,15.7,1020.0,15.9,47.0,0.0,0.0,0.0,0.0,0.0,0.0,0.0,0.0,53.269394,-9.077349,27.0,18,1,,
482,484,1777486277.024,4/29/26 19:11,1777486276,4/29/26 18:11,gps,15.7,1020.0,15.9,47.0,0.0,0.0,0.0,0.0,0.0,0.0,0.0,0.0,53.269394,-9.077349,27.0,18,1,,
483,485,1777486278.03,4/29/26 19:11,1777486277,4/29/26 18:11,gps,15.7,1020.0,15.9,47.0,0.0,0.0,0.0,0.0,0.0,0.0,0.0,0.0,53.269394,-9.077349,27.0,17,1,,
484,486,1777486279.024,4/29/26 19:11,1777486278,4/29/26 18:11,gps,15.7,1020.0,15.9,47.0,0.0,0.0,0.0,0.0,0.0,0.0,0.0,0.0,53.269394,-9.077349,27.0,17,1,,
485,487,1777486280.031,4/29/26 19:11,1777486279,4/29/26 18:11,gps,15.7,1020.0,15.9,47.1,0.0,0.0,0.0,0.0,0.0,0.0,0.0,0.0,53.269394,-9.077349,27.0,17,1,,
486,488,1777486281.025,4/29/26 19:11,1777486280,4/29/26 18:11,gps,15.7,1020.0,15.9,47.1,0.0,0.0,0.0,0.0,0.0,0.0,0.0,0.0,53.269394,-9.077349,27.1,17,1,,
487,489,1777486282.031,4/29/26 19:11,1777486281,4/29/26 18:11,gps,15.7,1020.0,15.9,47.1,0.0,0.0,0.0,0.0,0.0,0.0,0.0,0.0,53.269394,-9.077349,27.1,18,1,,
488,490,1777486283.024,4/29/26 19:11,1777486282,4/29/26 18:11,gps,15.8,1020.0,15.9,47.1,0.0,0.0,0.0,0.0,0.0,0.0,0.0,0.0,53.269394,-9.077349,27.1,18,1,,
489,491,1777486284.031,4/29/26 19:11,1777486283,4/29/26 18:11,gps,15.8,1020.0,15.9,47.1,0.0,0.0,0.0,0.0,0.0,0.0,0.0,0.0,53.269394,-9.077348,27.1,18,1,,
490,492,1777486285.024,4/29/26 19:11,1777486284,4/29/26 18:11,gps,15.8,1020.0,15.9,47.1,0.0,0.0,0.0,0.0,0.0,0.0,0.0,0.0,53.269394,-9.077348,27.1,18,1,,
491,493,1777486286.03,4/29/26 19:11,1777486285,4/29/26 18:11,gps,15.7,1020.0,15.9,47.1,0.0,0.0,0.0,0.0,0.0,0.0,0.0,0.0,53.269394,-9.077348,27.1,18,1,,
492,494,1777486287.024,4/29/26 19:11,1777486286,4/29/26 18:11,gps,15.7,1020.0,15.9,47.1,0.0,0.0,0.0,0.0,0.0,0.0,0.0,0.0,53.269394,-9.077348,27.1,18,1,,
493,495,1777486288.03,4/29/26 19:11,1777486287,4/29/26 18:11,gps,15.7,1020.0,15.9,47.1,0.0,0.0,0.0,0.0,0.0,0.0,0.0,0.0,53.269394,-9.077348,27.1,18,1,,
494,496,1777486289.024,4/29/26 19:11,1777486288,4/29/26 18:11,gps,15.7,1020.0,15.9,47.1,0.0,0.0,0.0,0.0,0.0,0.0,0.0,0.0,53.269394,-9.077348,27.1,18,1,,
495,497,1777486290.03,4/29/26 19:11,1777486289,4/29/26 18:11,gps,15.6,1020.0,15.9,47.2,0.0,0.0,0.0,0.0,0.0,0.0,0.0,0.0,53.269394,-9.077347,27.1,18,1,,
496,498,1777486291.024,4/29/26 19:11,1777486290,4/29/26 18:11,gps,15.6,1020.0,15.9,47.2,0.0,0.0,0.0,0.0,0.0,0.0,0.0,0.0,53.269394,-9.077347,27.1,18,1,,
497,499,1777486292.03,4/29/26 19:11,1777486291,4/29/26 18:11,gps,15.6,1020.0,15.9,47.4,0.0,0.0,0.0,0.0,0.0,0.0,0.0,0.0,53.269394,-9.077347,27.1,18,1,,
498,500,1777486293.024,4/29/26 19:11,1777486292,4/29/26 18:11,gps,15.6,1020.0,15.9,47.4,0.0,0.0,0.0,0.0,0.0,0.0,0.0,0.0,53.269394,-9.077347,27.1,18,1,,
499,501,1777486294.032,4/29/26 19:11,1777486293,4/29/26 18:11,gps,15.6,1020.0,15.9,47.6,0.0,0.0,0.0,0.0,0.0,0.0,0.0,0.0,53.269394,-9.077347,27.1,18,1,,
500,502,1777486295.024,4/29/26 19:11,1777486294,4/29/26 18:11,gps,15.6,1020.0,15.9,47.6,0.0,0.0,0.0,0.0,0.0,0.0,0.0,0.0,53.269394,-9.077347,27.1,18,1,,
501,503,1777486296.032,4/29/26 19:11,1777486295,4/29/26 18:11,gps,15.6,1020.0,15.8,47.5,0.0,0.0,0.0,0.0,0.0,0.0,0.0,0.0,53.269394,-9.077346,27.1,18,1,,
502,504,1777486297.024,4/29/26 19:11,1777486296,4/29/26 18:11,gps,15.6,1020.0,15.8,47.5,0.0,0.0,0.0,0.0,0.0,0.0,0.0,0.0,53.269394,-9.077346,27.1,18,1,,
503,505,1777486298.03,4/29/26 19:11,1777486297,4/29/26 18:11,gps,15.6,1020.0,15.8,47.4,0.0,0.0,0.0,0.0,0.0,0.0,0.0,0.0,53.269394,-9.077346,27.1,18,1,,
504,506,1777486299.024,4/29/26 19:11,1777486298,4/29/26 18:11,gps,15.6,1020.0,15.8,47.4,0.0,0.0,0.0,0.0,0.0,0.0,0.0,0.0,53.269394,-9.077346,27.1,18,1,,
505,507,1777486300.03,4/29/26 19:11,1777486299,4/29/26 18:11,gps,15.6,1020.0,15.9,47.5,0.0,0.0,0.0,0.0,0.0,0.0,0.0,0.0,53.269394,-9.077346,27.1,18,1,,
506,508,1777486301.024,4/29/26 19:11,1777486300,4/29/26 18:11,gps,15.5,1020.0,15.9,47.5,0.0,0.0,0.0,0.0,0.0,0.0,0.0,0.0,53.269394,-9.077345,27.1,18,1,,
507,509,1777486302.03,4/29/26 19:11,1777486301,4/29/26 18:11,gps,15.5,1020.0,15.9,47.4,0.0,0.0,0.0,0.0,0.0,0.0,0.0,0.0,53.269394,-9.077345,27.1,18,1,,
508,510,1777486303.024,4/29/26 19:11,1777486302,4/29/26 18:11,gps,15.5,1020.0,15.9,47.4,0.0,0.0,0.0,0.0,0.0,0.0,0.0,0.0,53.269394,-9.077345,27.1,18,1,,
509,511,1777486304.032,4/29/26 19:11,1777486303,4/29/26 18:11,gps,15.5,1020.0,15.9,47.4,0.0,0.0,0.0,0.0,0.0,0.0,0.0,0.0,53.269394,-9.077345,27.1,18,1,,
510,512,1777486305.024,4/29/26 19:11,1777486304,4/29/26 18:11,gps,15.6,1020.0,15.9,47.4,0.0,0.0,0.0,0.0,0.0,0.0,0.0,0.0,53.269394,-9.077345,27.1,18,1,,
511,513,1777486306.032,4/29/26 19:11,1777486305,4/29/26 18:11,gps,15.6,1020.0,15.9,47.4,0.0,0.0,0.0,0.0,0.0,0.0,0.0,0.0,53.269394,-9.077345,27.1,18,1,,
512,514,1777486307.027,4/29/26 19:11,1777486306,4/29/26 18:11,gps,15.6,1020.0,15.9,47.4,0.0,0.0,0.0,0.0,0.0,0.0,0.0,0.0,53.269394,-9.077345,27.1,18,1,,
513,515,1777486308.032,4/29/26 19:11,1777486307,4/29/26 18:11,gps,15.6,1020.0,15.9,47.4,0.0,0.0,0.0,0.0,0.0,0.0,0.0,0.0,53.269394,-9.077344,27.1,18,1,,
514,516,1777486309.024,4/29/26 19:11,1777486308,4/29/26 18:11,gps,15.6,1020.0,15.9,47.4,0.0,0.0,0.0,0.0,0.0,0.0,0.0,0.0,53.269394,-9.077344,27.1,18,1,,
515,517,1777486310.03,4/29/26 19:11,1777486309,4/29/26 18:11,gps,15.6,1020.0,15.8,47.2,0.0,0.0,0.0,0.0,0.0,0.0,0.0,0.0,53.269394,-9.077344,27.1,18,1,,
516,518,1777486311.024,4/29/26 19:11,1777486310,4/29/26 18:11,gps,15.6,1020.0,15.8,47.2,0.0,0.0,0.0,0.0,0.0,0.0,0.0,0.0,53.269394,-9.077344,27.1,18,1,,
517,519,1777486312.03,4/29/26 19:11,1777486311,4/29/26 18:11,gps,15.6,1020.0,15.9,47.3,0.0,0.0,0.0,0.0,0.0,0.0,0.0,0.0,53.269394,-9.077344,27.1,18,1,,
518,520,1777486313.024,4/29/26 19:11,1777486312,4/29/26 18:11,gps,15.6,1020.0,15.9,47.3,0.0,0.0,0.0,0.0,0.0,0.0,0.0,0.0,53.269394,-9.077344,27.1,18,1,,
519,521,1777486314.032,4/29/26 19:11,1777486313,4/29/26 18:11,gps,15.6,1020.0,15.9,47.3,0.0,0.0,0.0,0.0,0.0,0.0,0.0,0.0,53.269394,-9.077344,27.1,18,1,,
520,522,1777486315.024,4/29/26 19:11,1777486314,4/29/26 18:11,gps,15.6,1020.0,15.9,47.3,0.0,0.0,0.0,0.0,0.0,0.0,0.0,0.0,53.269394,-9.077344,27.1,18,1,,
521,523,1777486316.032,4/29/26 19:11,1777486315,4/29/26 18:11,gps,15.6,1020.0,15.9,47.2,0.0,0.0,0.0,0.0,0.0,0.0,0.0,0.0,53.269394,-9.077344,27.1,18,1,,
522,524,1777486317.024,4/29/26 19:11,1777486316,4/29/26 18:11,gps,15.6,1020.0,15.9,47.2,0.0,0.0,0.0,0.0,0.0,0.0,0.0,0.0,53.269394,-9.077344,27.1,18,1,,
523,525,1777486318.032,4/29/26 19:11,1777486317,4/29/26 18:11,gps,15.6,1020.0,15.9,47.2,0.0,0.0,0.0,0.0,0.0,0.0,0.0,0.0,53.269394,-9.077344,27.1,18,1,,
524,526,1777486319.024,4/29/26 19:11,1777486318,4/29/26 18:11,gps,15.6,1020.0,15.9,47.2,0.0,0.0,0.0,0.0,0.0,0.0,0.0,0.0,53.269394,-9.077344,27.1,18,1,,
525,527,1777486320.03,4/29/26 19:12,1777486319,4/29/26 18:11,gps,15.6,1020.0,15.9,47.1,0.0,0.0,0.0,0.0,0.0,0.0,0.0,0.0,53.269394,-9.077344,27.1,18,1,,
526,528,1777486321.024,4/29/26 19:12,1777486320,4/29/26 18:11,gps,15.6,1020.0,15.9,47.1,0.0,0.0,0.0,0.0,0.0,0.0,0.0,0.0,53.269394,-9.077344,27.1,18,1,,
527,529,1777486322.03,4/29/26 19:12,1777486321,4/29/26 18:12,gps,15.6,1020.0,15.8,47.1,0.0,0.0,0.0,0.0,0.0,0.0,0.0,0.0,53.269394,-9.077344,27.1,18,1,,
528,530,1777486323.024,4/29/26 19:12,1777486322,4/29/26 18:12,gps,15.6,1020.0,15.8,47.1,0.0,0.0,0.0,0.0,0.0,0.0,0.0,0.0,53.269394,-9.077344,27.1,18,1,,
529,531,1777486324.032,4/29/26 19:12,1777486323,4/29/26 18:12,gps,15.6,1020.0,15.8,47.1,0.0,0.0,0.0,0.0,0.0,0.0,0.0,0.0,53.269394,-9.077344,27.1,18,1,,
530,532,1777486325.024,4/29/26 19:12,1777486324,4/29/26 18:12,gps,15.5,1020.0,15.8,47.1,0.0,0.0,0.0,0.0,0.0,0.0,0.0,0.0,53.269394,-9.077344,27.1,18,1,,
531,533,1777486326.032,4/29/26 19:12,1777486325,4/29/26 18:12,gps,15.6,1020.0,15.8,47.0,0.0,0.0,0.0,0.0,0.0,0.0,0.0,0.0,53.269394,-9.077344,27.1,18,1,,
532,534,1777486327.024,4/29/26 19:12,1777486326,4/29/26 18:12,gps,15.6,1020.0,15.8,47.0,0.0,0.0,0.0,0.0,0.0,0.0,0.0,0.0,53.269394,-9.077344,27.1,18,1,,
533,535,1777486328.032,4/29/26 19:12,1777486327,4/29/26 18:12,gps,15.6,1020.0,15.8,47.0,0.0,0.0,0.0,0.0,0.0,0.0,0.0,0.0,53.269394,-9.077344,27.1,17,1,,
534,536,1777486329.024,4/29/26 19:12,1777486328,4/29/26 18:12,gps,15.6,1020.0,15.8,47.0,0.0,0.0,0.0,0.0,0.0,0.0,0.0,0.0,53.269394,-9.077344,27.1,17,1,,
535,537,1777486330.03,4/29/26 19:12,1777486329,4/29/26 18:12,gps,15.6,1020.0,15.8,47.0,0.0,0.0,0.0,0.0,0.0,0.0,0.0,0.0,53.269394,-9.077344,27.1,17,1,,
536,538,1777486331.024,4/29/26 19:12,1777486330,4/29/26 18:12,gps,15.6,1020.0,15.8,47.0,0.0,0.0,0.0,0.0,0.0,0.0,0.0,0.0,53.269394,-9.077344,27.1,17,1,,
537,539,1777486332.03,4/29/26 19:12,1777486331,4/29/26 18:12,gps,15.6,1020.0,15.8,47.0,0.0,0.0,0.0,0.0,0.0,0.0,0.0,0.0,53.269394,-9.077344,27.1,17,1,,
538,540,1777486333.024,4/29/26 19:12,1777486332,4/29/26 18:12,gps,15.6,1020.0,15.8,47.0,0.0,0.0,0.0,0.0,0.0,0.0,0.0,0.0,53.269394,-9.077344,27.1,17,1,,
539,541,1777486334.032,4/29/26 19:12,1777486333,4/29/26 18:12,gps,15.6,1020.0,15.9,47.0,0.0,0.0,0.0,0.0,0.0,0.0,0.0,0.0,53.269394,-9.077344,27.1,17,1,,
540,542,1777486335.023,4/29/26 19:12,1777486334,4/29/26 18:12,gps,15.6,1020.0,15.9,47.0,0.0,0.0,0.0,0.0,0.0,0.0,0.0,0.0,53.269394,-9.077344,27.1,17,1,,
541,543,1777486336.03,4/29/26 19:12,1777486335,4/29/26 18:12,gps,15.6,1020.0,15.9,47.0,0.0,0.0,0.0,0.0,0.0,0.0,0.0,0.0,53.269394,-9.077344,27.1,17,1,,
542,544,1777486337.024,4/29/26 19:12,1777486336,4/29/26 18:12,gps,15.6,1020.0,15.9,47.0,0.0,0.0,0.0,0.0,0.0,0.0,0.0,0.0,53.269394,-9.077344,27.1,17,1,,
543,545,1777486338.029,4/29/26 19:12,1777486337,4/29/26 18:12,gps,15.6,1020.0,15.8,46.9,0.0,0.0,0.0,0.0,0.0,0.0,0.0,0.0,53.269394,-9.077345,27.1,17,1,,
544,546,1777486339.023,4/29/26 19:12,1777486338,4/29/26 18:12,gps,15.6,1020.0,15.8,46.9,0.0,0.0,0.0,0.0,0.0,0.0,0.0,0.0,53.269394,-9.077345,27.1,17,1,,
545,547,1777486340.03,4/29/26 19:12,1777486339,4/29/26 18:12,gps,15.6,1020.0,15.9,47.0,0.0,0.0,0.0,0.0,0.0,0.0,0.0,0.0,53.269394,-9.077345,27.1,18,1,,
546,548,1777486341.023,4/29/26 19:12,1777486340,4/29/26 18:12,gps,15.6,1020.0,15.9,47.0,0.0,0.0,0.0,0.0,0.0,0.0,0.0,0.0,53.269394,-9.077345,27.1,18,1,,
547,549,1777486342.03,4/29/26 19:12,1777486341,4/29/26 18:12,gps,15.6,1020.0,15.9,47.0,0.0,0.0,0.0,0.0,0.0,0.0,0.0,0.0,53.269394,-9.077345,27.1,18,1,,
548,550,1777486343.024,4/29/26 19:12,1777486342,4/29/26 18:12,gps,15.6,1020.0,15.9,47.0,0.0,0.0,0.0,0.0,0.0,0.0,0.0,0.0,53.269394,-9.077345,27.1,18,1,,
549,551,1777486344.03,4/29/26 19:12,1777486343,4/29/26 18:12,gps,15.6,1020.0,15.8,47.0,0.0,0.0,0.0,0.0,0.0,0.0,0.0,0.0,53.269394,-9.077345,27.1,18,1,,
550,552,1777486345.023,4/29/26 19:12,1777486344,4/29/26 18:12,gps,15.6,1020.0,15.8,47.0,0.0,0.0,0.0,0.0,0.0,0.0,0.0,0.0,53.269394,-9.077345,27.1,18,1,,
551,553,1777486346.029,4/29/26 19:12,1777486345,4/29/26 18:12,gps,15.6,1020.0,15.8,47.0,0.0,0.0,0.0,0.0,0.0,0.0,0.0,0.0,53.269394,-9.077345,27.1,18,1,,
552,554,1777486347.023,4/29/26 19:12,1777486346,4/29/26 18:12,gps,15.6,1020.0,15.8,47.0,0.0,0.0,0.0,0.0,0.0,0.0,0.0,0.0,53.269394,-9.077345,27.1,18,1,,
553,555,1777486348.03,4/29/26 19:12,1777486347,4/29/26 18:12,gps,15.6,1020.0,15.9,47.1,0.0,0.0,0.0,0.0,0.0,0.0,0.0,0.0,53.269394,-9.077344,27.1,18,1,,
554,556,1777486349.024,4/29/26 19:12,1777486348,4/29/26 18:12,gps,15.6,1020.0,15.9,47.1,0.0,0.0,0.0,0.0,0.0,0.0,0.0,0.0,53.269394,-9.077344,27.1,18,1,,
555,557,1777486350.03,4/29/26 19:12,1777486349,4/29/26 18:12,gps,15.6,1020.0,15.8,47.0,0.0,0.0,0.0,0.0,0.0,0.0,0.0,0.0,53.269394,-9.077344,27.1,18,1,,
556,558,1777486351.027,4/29/26 19:12,1777486350,4/29/26 18:12,gps,15.6,1020.0,15.8,47.0,0.0,0.0,0.0,0.0,0.0,0.0,0.0,0.0,53.269394,-9.077344,27.1,18,1,,
557,559,1777486352.03,4/29/26 19:12,1777486351,4/29/26 18:12,gps,15.6,1020.0,15.8,47.0,0.0,0.0,0.0,0.0,0.0,0.0,0.0,0.0,53.269394,-9.077344,27.1,18,1,,
558,560,1777486353.023,4/29/26 19:12,1777486352,4/29/26 18:12,gps,15.6,1020.0,15.8,47.0,0.0,0.0,0.0,0.0,0.0,0.0,0.0,0.0,53.269394,-9.077344,27.1,18,1,,
559,561,1777486354.035,4/29/26 19:12,1777486353,4/29/26 18:12,gps,15.6,1020.0,15.8,47.0,0.0,0.0,0.0,0.0,0.0,0.0,0.0,0.0,53.269394,-9.077343,27.1,18,1,,
560,562,1777486355.034,4/29/26 19:12,1777486354,4/29/26 18:12,gps,15.6,1020.0,15.8,47.0,0.0,0.0,0.0,0.0,0.0,0.0,0.0,0.0,53.269394,-9.077343,27.1,18,1,,
561,563,1777486356.033,4/29/26 19:12,1777486355,4/29/26 18:12,gps,15.6,1020.0,15.8,47.1,0.0,0.0,0.0,0.0,0.0,0.0,0.0,0.0,53.269394,-9.077343,27.1,18,1,,
562,564,1777486357.03,4/29/26 19:12,1777486356,4/29/26 18:12,gps,15.6,1020.0,15.8,47.1,0.0,0.0,0.0,0.0,0.0,0.0,0.0,0.0,53.269394,-9.077343,27.1,18,1,,
563,565,1777486358.029,4/29/26 19:12,1777486357,4/29/26 18:12,gps,15.6,1020.0,15.8,47.1,0.0,0.0,0.0,0.0,0.0,0.0,0.0,0.0,53.269394,-9.077343,27.1,18,1,,
564,566,1777486359.023,4/29/26 19:12,1777486358,4/29/26 18:12,gps,15.6,1020.0,15.8,47.1,0.0,0.0,0.0,0.0,0.0,0.0,0.0,0.0,53.269394,-9.077343,27.1,18,1,,
565,567,1777486360.029,4/29/26 19:12,1777486359,4/29/26 18:12,gps,15.6,1020.0,15.8,47.1,0.0,0.0,0.0,0.0,0.0,0.0,0.0,0.0,53.269394,-9.077342,27.1,18,1,,
566,568,1777486361.025,4/29/26 19:12,1777486360,4/29/26 18:12,gps,15.6,1020.0,15.8,47.1,0.0,0.0,0.0,0.0,0.0,0.0,0.0,0.0,53.269394,-9.077342,27.1,18,1,,
567,569,1777486362.029,4/29/26 19:12,1777486361,4/29/26 18:12,gps,15.6,1020.0,15.8,47.0,0.0,0.0,0.0,0.0,0.0,0.0,0.0,0.0,53.269394,-9.077342,27.1,18,1,,
568,570,1777486363.023,4/29/26 19:12,1777486362,4/29/26 18:12,gps,15.6,1020.0,15.8,47.0,0.0,0.0,0.0,0.0,0.0,0.0,0.0,0.0,53.269394,-9.077342,27.1,18,1,,
569,571,1777486364.029,4/29/26 19:12,1777486363,4/29/26 18:12,gps,15.6,1020.0,15.8,47.0,0.0,0.0,0.0,0.0,0.0,0.0,0.0,0.0,53.269394,-9.077342,27.1,18,1,,
570,572,1777486365.027,4/29/26 19:12,1777486364,4/29/26 18:12,gps,15.6,1020.0,15.8,47.0,0.0,0.0,0.0,0.0,0.0,0.0,0.0,0.0,53.269394,-9.077342,27.1,18,1,,
571,573,1777486366.029,4/29/26 19:12,1777486365,4/29/26 18:12,gps,15.6,1020.0,15.8,47.0,0.0,0.0,0.0,0.0,0.0,0.0,0.0,0.0,53.269394,-9.077342,27.1,18,1,,
572,574,1777486367.027,4/29/26 19:12,1777486366,4/29/26 18:12,gps,15.6,1020.0,15.8,47.0,0.0,0.0,0.0,0.0,0.0,0.0,0.0,0.0,53.269394,-9.077341,27.1,18,1,,
573,575,1777486368.031,4/29/26 19:12,1777486367,4/29/26 18:12,gps,15.6,1020.0,15.8,47.0,0.0,0.0,0.0,0.0,0.0,0.0,0.0,0.0,53.269394,-9.077341,27.2,18,1,,
574,576,1777486369.027,4/29/26 19:12,1777486368,4/29/26 18:12,gps,15.6,1020.0,15.8,47.0,0.0,0.0,0.0,0.0,0.0,0.0,0.0,0.0,53.269394,-9.077341,27.2,18,1,,
575,577,1777486370.029,4/29/26 19:12,1777486369,4/29/26 18:12,gps,15.6,1020.0,15.8,47.0,0.0,0.0,0.0,0.0,0.0,0.0,0.0,0.0,53.269394,-9.077341,27.1,18,1,,
576,578,1777486371.026,4/29/26 19:12,1777486370,4/29/26 18:12,gps,15.6,1020.0,15.8,47.0,0.0,0.0,0.0,0.0,0.0,0.0,0.0,0.0,53.269394,-9.077341,27.2,18,1,,
577,579,1777486372.031,4/29/26 19:12,1777486371,4/29/26 18:12,gps,15.6,1020.0,15.8,47.0,0.0,0.0,0.0,0.0,0.0,0.0,0.0,0.0,53.269394,-9.07734,27.2,18,1,,
578,580,1777486373.027,4/29/26 19:12,1777486372,4/29/26 18:12,gps,15.6,1020.0,15.8,47.0,0.0,0.0,0.0,0.0,0.0,0.0,0.0,0.0,53.269394,-9.07734,27.1,18,1,,
579,581,1777486374.029,4/29/26 19:12,1777486373,4/29/26 18:12,gps,15.6,1020.0,15.8,47.1,0.0,0.0,0.0,0.0,0.0,0.0,0.0,0.0,53.269394,-9.07734,27.1,18,1,,
580,582,1777486375.023,4/29/26 19:12,1777486374,4/29/26 18:12,gps,15.6,1020.0,15.8,47.1,0.0,0.0,0.0,0.0,0.0,0.0,0.0,0.0,53.269394,-9.07734,27.1,18,1,,
581,583,1777486376.031,4/29/26 19:12,1777486375,4/29/26 18:12,gps,15.6,1020.0,15.8,47.1,0.0,0.0,0.0,0.0,0.0,0.0,0.0,0.0,53.269394,-9.07734,27.1,18,1,,
582,584,1777486377.024,4/29/26 19:12,1777486376,4/29/26 18:12,gps,15.6,1020.0,15.8,47.1,0.0,0.0,0.0,0.0,0.0,0.0,0.0,0.0,53.269394,-9.07734,27.1,18,1,,
583,585,1777486378.029,4/29/26 19:12,1777486377,4/29/26 18:12,gps,15.6,1020.0,15.8,47.1,0.0,0.0,0.0,0.0,0.0,0.0,0.0,0.0,53.269394,-9.07734,27.1,18,1,,
584,586,1777486379.023,4/29/26 19:12,1777486378,4/29/26 18:12,gps,15.6,1020.0,15.8,47.1,0.0,0.0,0.0,0.0,0.0,0.0,0.0,0.0,53.269398,-9.07734,27.1,18,1,,
585,587,1777486380.029,4/29/26 19:12,1777486379,4/29/26 18:12,gps,15.6,1020.0,15.8,47.1,0.0,0.0,0.0,0.0,0.0,0.0,0.0,0.0,53.269398,-9.07734,27.1,18,1,,
586,588,1777486381.023,4/29/26 19:13,1777486380,4/29/26 18:13,gps,15.6,1020.0,15.8,47.1,0.0,0.0,0.0,0.0,0.0,0.0,0.0,0.0,53.269398,-9.07734,27.1,18,1,,
587,589,1777486382.029,4/29/26 19:13,1777486381,4/29/26 18:13,gps,15.6,1020.0,15.8,47.1,0.0,0.0,0.0,0.0,0.0,0.0,0.0,0.0,53.269398,-9.07734,27.1,18,1,,
588,590,1777486383.023,4/29/26 19:13,1777486382,4/29/26 18:13,gps,15.6,1020.0,15.8,47.1,0.0,0.0,0.0,0.0,0.0,0.0,0.0,0.0,53.269398,-9.07734,27.1,18,1,,
589,591,1777486384.029,4/29/26 19:13,1777486383,4/29/26 18:13,gps,15.6,1020.0,15.8,47.1,0.0,0.0,0.0,0.0,0.0,0.0,0.0,0.0,53.269398,-9.077339,27.1,18,1,,
590,592,1777486385.023,4/29/26 19:13,1777486384,4/29/26 18:13,gps,15.6,1020.0,15.8,47.1,0.0,0.0,0.0,0.0,0.0,0.0,0.0,0.0,53.269398,-9.077339,27.1,18,1,,
591,593,1777486386.035,4/29/26 19:13,1777486385,4/29/26 18:13,gps,15.6,1020.0,15.8,47.1,0.0,0.0,0.0,0.0,0.0,0.0,0.0,0.0,53.269398,-9.077339,27.1,18,1,,
592,594,1777486387.023,4/29/26 19:13,1777486386,4/29/26 18:13,gps,15.6,1020.0,15.8,47.1,0.0,0.0,0.0,0.0,0.0,0.0,0.0,0.0,53.269398,-9.077339,27.1,18,1,,
593,595,1777486388.029,4/29/26 19:13,1777486387,4/29/26 18:13,gps,15.6,1020.0,15.8,47.1,0.0,0.0,0.0,0.0,0.0,0.0,0.0,0.0,53.269398,-9.077339,27.1,18,1,,
594,596,1777486389.027,4/29/26 19:13,1777486388,4/29/26 18:13,gps,15.5,1020.0,15.8,47.1,0.0,0.0,0.0,0.0,0.0,0.0,0.0,0.0,53.269398,-9.077339,27.1,18,1,,
595,597,1777486390.036,4/29/26 19:13,1777486389,4/29/26 18:13,gps,15.5,1020.0,15.8,47.1,0.0,0.0,0.0,0.0,0.0,0.0,0.0,0.0,53.269398,-9.077339,27.1,18,1,,
596,598,1777486391.025,4/29/26 19:13,1777486390,4/29/26 18:13,gps,15.5,1020.0,15.8,47.1,0.0,0.0,0.0,0.0,0.0,0.0,0.0,0.0,53.269398,-9.077339,27.1,18,1,,
597,599,1777486392.029,4/29/26 19:13,1777486391,4/29/26 18:13,gps,15.5,1020.0,15.8,47.2,0.0,0.0,0.0,0.0,0.0,0.0,0.0,0.0,53.269398,-9.077339,27.1,18,1,,
598,600,1777486393.023,4/29/26 19:13,1777486392,4/29/26 18:13,gps,15.5,1020.0,15.8,47.2,0.0,0.0,0.0,0.0,0.0,0.0,0.0,0.0,53.269398,-9.077339,27.1,18,1,,
599,601,1777486394.031,4/29/26 19:13,1777486393,4/29/26 18:13,gps,15.5,1020.0,15.8,47.2,0.0,0.0,0.0,0.0,0.0,0.0,0.0,0.0,53.269398,-9.077338,27.1,18,1,,
600,602,1777486395.025,4/29/26 19:13,1777486394,4/29/26 18:13,gps,15.5,1020.0,15.8,47.2,0.0,0.0,0.0,0.0,0.0,0.0,0.0,0.0,53.269398,-9.077338,27.1,18,1,,
601,603,1777486396.035,4/29/26 19:13,1777486395,4/29/26 18:13,gps,15.5,1020.0,15.8,47.3,0.0,0.0,0.0,0.0,0.0,0.0,0.0,0.0,53.269398,-9.077338,27.1,18,1,,
602,604,1777486397.025,4/29/26 19:13,1777486396,4/29/26 18:13,gps,15.5,1020.0,15.8,47.3,0.0,0.0,0.0,0.0,0.0,0.0,0.0,0.0,53.269398,-9.077338,27.1,18,1,,
603,605,1777486398.029,4/29/26 19:13,1777486397,4/29/26 18:13,gps,15.4,1020.0,15.8,47.4,0.0,0.0,0.0,0.0,0.0,0.0,0.0,0.0,53.269398,-9.077338,27.1,18,1,,
604,606,1777486399.027,4/29/26 19:13,1777486398,4/29/26 18:13,gps,15.4,1020.0,15.8,47.4,0.0,0.0,0.0,0.0,0.0,0.0,0.0,0.0,53.269398,-9.077338,27.1,18,1,,
605,607,1777486400.029,4/29/26 19:13,1777486399,4/29/26 18:13,gps,15.4,1020.0,15.8,47.5,0.0,0.0,0.0,0.0,0.0,0.0,0.0,0.0,53.269398,-9.077338,27.1,18,1,,
606,608,1777486401.025,4/29/26 19:13,1777486400,4/29/26 18:13,gps,15.4,1020.0,15.8,47.5,0.0,0.0,0.0,0.0,0.0,0.0,0.0,0.0,53.269398,-9.077337,27.1,18,1,,
607,609,1777486402.029,4/29/26 19:13,1777486401,4/29/26 18:13,gps,15.4,1020.0,15.8,47.6,0.0,0.0,0.0,0.0,0.0,0.0,0.0,0.0,53.269398,-9.077337,27.1,18,1,,
608,610,1777486403.023,4/29/26 19:13,1777486402,4/29/26 18:13,gps,15.4,1020.0,15.8,47.6,0.0,0.0,0.0,0.0,0.0,0.0,0.0,0.0,53.269398,-9.077337,27.1,18,1,,
609,611,1777486404.029,4/29/26 19:13,1777486403,4/29/26 18:13,gps,15.3,1020.0,15.8,47.7,0.0,0.0,0.0,0.0,0.0,0.0,0.0,0.0,53.269398,-9.077337,27.1,18,1,,
610,612,1777486405.03,4/29/26 19:13,1777486404,4/29/26 18:13,gps,15.3,1020.0,15.8,47.7,0.0,0.0,0.0,0.0,0.0,0.0,0.0,0.0,53.269398,-9.077337,27.1,18,1,,
611,613,1777486406.029,4/29/26 19:13,1777486405,4/29/26 18:13,gps,15.3,1020.0,15.8,47.8,0.0,0.0,0.0,0.0,0.0,0.0,0.0,0.0,53.269398,-9.077337,27.1,18,1,,
612,614,1777486407.023,4/29/26 19:13,1777486406,4/29/26 18:13,gps,15.3,1020.0,15.8,47.8,0.0,0.0,0.0,0.0,0.0,0.0,0.0,0.0,53.269398,-9.077337,27.1,18,1,,
613,615,1777486408.029,4/29/26 19:13,1777486407,4/29/26 18:13,gps,15.3,1020.0,15.8,47.9,0.0,0.0,0.0,0.0,0.0,0.0,0.0,0.0,53.269398,-9.077337,27.1,18,1,,
614,616,1777486409.024,4/29/26 19:13,1777486408,4/29/26 18:13,gps,15.3,1020.0,15.8,47.9,0.0,0.0,0.0,0.0,0.0,0.0,0.0,0.0,53.269398,-9.077337,27.1,18,1,,
615,617,1777486410.029,4/29/26 19:13,1777486409,4/29/26 18:13,gps,15.3,1020.0,15.8,48.0,0.0,0.0,0.0,0.0,0.0,0.0,0.0,0.0,53.269398,-9.077337,27.1,18,1,,
616,618,1777486411.022,4/29/26 19:13,1777486410,4/29/26 18:13,gps,15.3,1020.0,15.8,48.0,0.0,0.0,0.0,0.0,0.0,0.0,0.0,0.0,53.269398,-9.077337,27.1,18,1,,
617,619,1777486412.029,4/29/26 19:13,1777486411,4/29/26 18:13,gps,15.3,1020.0,15.8,47.9,0.0,0.0,0.0,0.0,0.0,0.0,0.0,0.0,53.269398,-9.077337,27.1,18,1,,
618,620,1777486413.023,4/29/26 19:13,1777486412,4/29/26 18:13,gps,15.3,1020.0,15.8,47.9,0.0,0.0,0.0,0.0,0.0,0.0,0.0,0.0,53.269398,-9.077337,27.1,18,1,,
619,621,1777486414.031,4/29/26 19:13,1777486413,4/29/26 18:13,gps,15.3,1020.0,15.8,47.9,0.0,0.0,0.0,0.0,0.0,0.0,0.0,0.0,53.269398,-9.077337,27.1,18,1,,
620,622,1777486415.023,4/29/26 19:13,1777486414,4/29/26 18:13,gps,15.3,1020.0,15.8,47.9,0.0,0.0,0.0,0.0,0.0,0.0,0.0,0.0,53.269398,-9.077337,27.2,18,1,,
621,623,1777486416.03,4/29/26 19:13,1777486415,4/29/26 18:13,gps,15.3,1020.0,15.8,47.9,0.0,0.0,0.0,0.0,0.0,0.0,0.0,0.0,53.269398,-9.077337,27.2,18,1,,
622,624,1777486417.023,4/29/26 19:13,1777486416,4/29/26 18:13,gps,15.3,1020.0,15.8,47.9,0.0,0.0,0.0,0.0,0.0,0.0,0.0,0.0,53.269398,-9.077337,27.2,18,1,,
623,625,1777486418.032,4/29/26 19:13,1777486417,4/29/26 18:13,gps,15.3,1020.0,15.8,47.9,0.0,0.0,0.0,0.0,0.0,0.0,0.0,0.0,53.269398,-9.077337,27.2,18,1,,
624,626,1777486419.023,4/29/26 19:13,1777486418,4/29/26 18:13,gps,15.3,1020.0,15.8,47.9,0.0,0.0,0.0,0.0,0.0,0.0,0.0,0.0,53.269398,-9.077336,27.2,18,1,,
625,627,1777486420.029,4/29/26 19:13,1777486419,4/29/26 18:13,gps,15.3,1020.0,15.8,47.9,0.0,0.0,0.0,0.0,0.0,0.0,0.0,0.0,53.269398,-9.077336,27.2,18,1,,
626,628,1777486421.022,4/29/26 19:13,1777486420,4/29/26 18:13,gps,15.3,1020.0,15.8,47.9,0.0,0.0,0.0,0.0,0.0,0.0,0.0,0.0,53.269398,-9.077336,27.2,18,1,,
627,629,1777486422.029,4/29/26 19:13,1777486421,4/29/26 18:13,gps,15.3,1020.0,15.8,47.8,0.0,0.0,0.0,0.0,0.0,0.0,0.0,0.0,53.269398,-9.077336,27.2,18,1,,
628,630,1777486423.023,4/29/26 19:13,1777486422,4/29/26 18:13,gps,15.3,1020.0,15.8,47.8,0.0,0.0,0.0,0.0,0.0,0.0,0.0,0.0,53.269398,-9.077336,27.2,18,1,,
629,631,1777486424.029,4/29/26 19:13,1777486423,4/29/26 18:13,gps,15.3,1020.0,15.8,47.8,0.0,0.0,0.0,0.0,0.0,0.0,0.0,0.0,53.269398,-9.077336,27.2,18,1,,
630,632,1777486425.022,4/29/26 19:13,1777486424,4/29/26 18:13,gps,15.3,1020.0,15.8,47.8,0.0,0.0,0.0,0.0,0.0,0.0,0.0,0.0,53.269398,-9.077336,27.2,18,1,,
631,633,1777486426.029,4/29/26 19:13,1777486425,4/29/26 18:13,gps,15.4,1020.0,15.8,47.8,0.0,0.0,0.0,0.0,0.0,0.0,0.0,0.0,53.269398,-9.077335,27.2,18,1,,
632,634,1777486427.026,4/29/26 19:13,1777486426,4/29/26 18:13,gps,15.4,1020.0,15.8,47.8,0.0,0.0,0.0,0.0,0.0,0.0,0.0,0.0,53.269398,-9.077335,27.2,18,1,,
633,635,1777486428.029,4/29/26 19:13,1777486427,4/29/26 18:13,gps,15.4,1020.0,15.8,47.7,0.0,0.0,0.0,0.0,0.0,0.0,0.0,0.0,53.269398,-9.077335,27.2,18,1,,
634,636,1777486429.026,4/29/26 19:13,1777486428,4/29/26 18:13,gps,15.4,1020.0,15.8,47.7,0.0,0.0,0.0,0.0,0.0,0.0,0.0,0.0,53.269398,-9.077335,27.2,18,1,,
635,637,1777486430.03,4/29/26 19:13,1777486429,4/29/26 18:13,gps,15.4,1020.0,15.8,47.7,0.0,0.0,0.0,0.0,0.0,0.0,0.0,0.0,53.269398,-9.077335,27.2,18,1,,
636,638,1777486431.022,4/29/26 19:13,1777486430,4/29/26 18:13,gps,15.4,1020.0,15.8,47.7,0.0,0.0,0.0,0.0,0.0,0.0,0.0,0.0,53.269398,-9.077335,27.2,18,1,,
637,639,1777486432.03,4/29/26 19:13,1777486431,4/29/26 18:13,gps,15.4,1020.0,15.8,47.6,0.0,0.0,0.0,0.0,0.0,0.0,0.0,0.0,53.269398,-9.077335,27.2,18,1,,
638,640,1777486433.022,4/29/26 19:13,1777486432,4/29/26 18:13,gps,15.4,1020.0,15.8,47.6,0.0,0.0,0.0,0.0,0.0,0.0,0.0,0.0,53.269398,-9.077334,27.2,18,1,,
639,641,1777486434.028,4/29/26 19:13,1777486433,4/29/26 18:13,gps,15.4,1020.0,15.8,47.6,0.0,0.0,0.0,0.0,0.0,0.0,0.0,0.0,53.269398,-9.077334,27.2,18,1,,
640,642,1777486435.022,4/29/26 19:13,1777486434,4/29/26 18:13,gps,15.4,1020.0,15.8,47.6,0.0,0.0,0.0,0.0,0.0,0.0,0.0,0.0,53.269398,-9.077334,27.2,18,1,,
641,643,1777486436.028,4/29/26 19:13,1777486435,4/29/26 18:13,gps,15.4,1020.0,15.8,47.7,0.0,0.0,0.0,0.0,0.0,0.0,0.0,0.0,53.269398,-9.077334,27.2,18,1,,
642,644,1777486437.026,4/29/26 19:13,1777486436,4/29/26 18:13,gps,15.4,1020.0,15.8,47.7,0.0,0.0,0.0,0.0,0.0,0.0,0.0,0.0,53.269398,-9.077334,27.2,18,1,,
643,645,1777486438.029,4/29/26 19:13,1777486437,4/29/26 18:13,gps,15.4,1020.0,15.8,47.7,0.0,0.0,0.0,0.0,0.0,0.0,0.0,0.0,53.269398,-9.077334,27.2,18,1,,
644,646,1777486439.029,4/29/26 19:13,1777486438,4/29/26 18:13,gps,15.4,1020.0,15.8,47.7,0.0,0.0,0.0,0.0,0.0,0.0,0.0,0.0,53.269398,-9.077334,27.2,18,1,,
645,647,1777486440.028,4/29/26 19:14,1777486439,4/29/26 18:13,gps,15.4,1020.0,15.7,47.6,0.0,0.0,0.0,0.0,0.0,0.0,0.0,0.0,53.269398,-9.077334,27.2,18,1,,
646,648,1777486441.022,4/29/26 19:14,1777486440,4/29/26 18:14,gps,15.4,1020.0,15.7,47.6,0.0,0.0,0.0,0.0,0.0,0.0,0.0,0.0,53.269398,-9.077334,27.3,18,1,,
647,649,1777486442.028,4/29/26 19:14,1777486441,4/29/26 18:14,gps,15.4,1020.0,15.8,47.8,0.0,0.0,0.0,0.0,0.0,0.0,0.0,0.0,53.269398,-9.077334,27.3,18,1,,
648,650,1777486443.022,4/29/26 19:14,1777486442,4/29/26 18:14,gps,15.4,1020.0,15.8,47.8,0.0,0.0,0.0,0.0,0.0,0.0,0.0,0.0,53.269398,-9.077334,27.3,18,1,,
649,651,1777486444.028,4/29/26 19:14,1777486443,4/29/26 18:14,gps,15.4,1020.0,15.8,47.8,0.0,0.0,0.0,0.0,0.0,0.0,0.0,0.0,53.269398,-9.077334,27.3,18,1,,
650,652,1777486445.022,4/29/26 19:14,1777486444,4/29/26 18:14,gps,15.4,1020.0,15.8,47.8,0.0,0.0,0.0,0.0,0.0,0.0,0.0,0.0,53.269398,-9.077335,27.3,18,1,,
651,653,1777486446.034,4/29/26 19:14,1777486445,4/29/26 18:14,gps,15.4,1021.0,15.7,47.7,0.0,0.0,0.0,0.0,0.0,0.0,0.0,0.0,53.269398,-9.077335,27.3,18,1,,
652,654,1777486447.024,4/29/26 19:14,1777486446,4/29/26 18:14,gps,15.4,1021.0,15.7,47.7,0.0,0.0,0.0,0.0,0.0,0.0,0.0,0.0,53.269398,-9.077335,27.3,18,1,,
653,655,1777486448.031,4/29/26 19:14,1777486447,4/29/26 18:14,gps,15.5,1020.0,15.8,47.9,0.0,0.0,0.0,0.0,0.0,0.0,0.0,0.0,53.269398,-9.077335,27.3,18,1,,
654,656,1777486449.027,4/29/26 19:14,1777486448,4/29/26 18:14,gps,15.5,1020.0,15.8,47.9,0.0,0.0,0.0,0.0,0.0,0.0,0.0,0.0,53.269398,-9.077335,27.3,18,1,,
655,657,1777486450.03,4/29/26 19:14,1777486449,4/29/26 18:14,gps,15.5,1020.0,15.8,48.0,0.0,0.0,0.0,0.0,0.0,0.0,0.0,0.0,53.269398,-9.077334,27.0,18,1,,
656,658,1777486451.024,4/29/26 19:14,1777486450,4/29/26 18:14,gps,15.5,1020.0,15.8,48.0,0.0,0.0,0.0,0.0,0.0,0.0,0.0,0.0,53.269398,-9.077334,27.0,18,1,,
657,659,1777486452.03,4/29/26 19:14,1777486451,4/29/26 18:14,gps,15.5,1020.0,15.8,47.9,0.0,0.0,0.0,0.0,0.0,0.0,0.0,0.0,53.269398,-9.077334,27.0,18,1,,
658,660,1777486453.022,4/29/26 19:14,1777486452,4/29/26 18:14,gps,15.5,1020.0,15.8,47.9,0.0,0.0,0.0,0.0,0.0,0.0,0.0,0.0,53.269398,-9.077334,27.0,18,1,,
659,661,1777486454.033,4/29/26 19:14,1777486453,4/29/26 18:14,gps,15.5,1020.0,15.7,47.8,0.0,0.0,0.0,0.0,0.0,0.0,0.0,0.0,53.269398,-9.077334,27.0,18,1,,
660,662,1777486455.025,4/29/26 19:14,1777486454,4/29/26 18:14,gps,15.5,1020.0,15.7,47.8,0.0,0.0,0.0,0.0,0.0,0.0,0.0,0.0,53.269398,-9.077335,27.1,18,1,,
661,663,1777486456.03,4/29/26 19:14,1777486455,4/29/26 18:14,gps,15.5,1020.0,15.8,47.7,0.0,0.0,0.0,0.0,0.0,0.0,0.0,0.0,53.269398,-9.077335,27.1,18,1,,
662,664,1777486457.022,4/29/26 19:14,1777486456,4/29/26 18:14,gps,15.5,1020.0,15.8,47.7,0.0,0.0,0.0,0.0,0.0,0.0,0.0,0.0,53.269398,-9.077335,27.1,18,1,,
663,665,1777486458.041,4/29/26 19:14,1777486457,4/29/26 18:14,gps,15.5,1021.0,15.7,47.6,0.0,0.0,0.0,0.0,0.0,0.0,0.0,0.0,53.269398,-9.077335,27.1,18,1,,
664,666,1777486459.022,4/29/26 19:14,1777486458,4/29/26 18:14,gps,15.4,1021.0,15.7,47.6,0.0,0.0,0.0,0.0,0.0,0.0,0.0,0.0,53.269398,-9.077335,27.1,18,1,,
665,667,1777486460.031,4/29/26 19:14,1777486459,4/29/26 18:14,gps,15.4,1021.0,15.7,47.5,0.0,0.0,0.0,0.0,0.0,0.0,0.0,0.0,53.269398,-9.077335,27.1,18,1,,
666,668,1777486461.022,4/29/26 19:14,1777486460,4/29/26 18:14,gps,15.4,1021.0,15.7,47.5,0.0,0.0,0.0,0.0,0.0,0.0,0.0,0.0,53.269398,-9.077335,27.1,18,1,,
667,669,1777486462.03,4/29/26 19:14,1777486461,4/29/26 18:14,gps,15.4,1020.0,15.8,47.6,0.0,0.0,0.0,0.0,0.0,0.0,0.0,0.0,53.269398,-9.077335,27.1,18,1,,
668,670,1777486463.022,4/29/26 19:14,1777486462,4/29/26 18:14,gps,15.4,1020.0,15.8,47.6,0.0,0.0,0.0,0.0,0.0,0.0,0.0,0.0,53.269398,-9.077334,27.1,18,1,,
669,671,1777486464.03,4/29/26 19:14,1777486463,4/29/26 18:14,gps,15.4,1020.0,15.8,47.5,0.0,0.0,0.0,0.0,0.0,0.0,0.0,0.0,53.269398,-9.077334,27.1,18,1,,
670,672,1777486465.022,4/29/26 19:14,1777486464,4/29/26 18:14,gps,15.4,1020.0,15.8,47.5,0.0,0.0,0.0,0.0,0.0,0.0,0.0,0.0,53.269398,-9.077334,27.1,17,1,,
671,673,1777486466.03,4/29/26 19:14,1777486465,4/29/26 18:14,gps,15.4,1020.0,15.8,47.5,0.0,0.0,0.0,0.0,0.0,0.0,0.0,0.0,53.269398,-9.077334,27.1,17,1,,
672,674,1777486467.023,4/29/26 19:14,1777486466,4/29/26 18:14,gps,15.4,1020.0,15.8,47.5,0.0,0.0,0.0,0.0,0.0,0.0,0.0,0.0,53.269394,-9.077334,27.1,17,1,,
673,675,1777486468.03,4/29/26 19:14,1777486467,4/29/26 18:14,gps,15.4,1020.0,15.8,47.5,0.0,0.0,0.0,0.0,0.0,0.0,0.0,0.0,53.269394,-9.077334,27.1,17,1,,
674,676,1777486469.03,4/29/26 19:14,1777486468,4/29/26 18:14,gps,15.4,1020.0,15.8,47.5,0.0,0.0,0.0,0.0,0.0,0.0,0.0,0.0,53.269394,-9.077334,27.1,17,1,,
675,677,1777486470.03,4/29/26 19:14,1777486469,4/29/26 18:14,gps,15.4,1020.0,15.8,47.5,0.0,0.0,0.0,0.0,0.0,0.0,0.0,0.0,53.269394,-9.077334,27.1,17,1,,
676,678,1777486471.022,4/29/26 19:14,1777486470,4/29/26 18:14,gps,15.4,1020.0,15.8,47.5,0.0,0.0,0.0,0.0,0.0,0.0,0.0,0.0,53.269394,-9.077334,27.1,17,1,,
677,679,1777486472.028,4/29/26 19:14,1777486471,4/29/26 18:14,gps,15.4,1020.0,15.8,47.5,0.0,0.0,0.0,0.0,0.0,0.0,0.0,0.0,53.269394,-9.077333,27.1,18,1,,
678,680,1777486473.029,4/29/26 19:14,1777486472,4/29/26 18:14,gps,15.4,1020.0,15.8,47.5,0.0,0.0,0.0,0.0,0.0,0.0,0.0,0.0,53.269394,-9.077333,27.1,18,1,,
679,681,1777486474.028,4/29/26 19:14,1777486473,4/29/26 18:14,gps,15.4,1020.0,15.7,47.3,0.0,0.0,0.0,0.0,0.0,0.0,0.0,0.0,53.269394,-9.077333,27.1,18,1,,
680,682,1777486475.022,4/29/26 19:14,1777486474,4/29/26 18:14,gps,15.4,1020.0,15.7,47.3,0.0,0.0,0.0,0.0,0.0,0.0,0.0,0.0,53.269394,-9.077333,27.1,18,1,,
681,683,1777486476.028,4/29/26 19:14,1777486475,4/29/26 18:14,gps,15.4,1020.0,15.8,47.4,0.0,0.0,0.0,0.0,0.0,0.0,0.0,0.0,53.269394,-9.077332,27.1,18,1,,
682,684,1777486477.031,4/29/26 19:14,1777486476,4/29/26 18:14,gps,15.4,1020.0,15.8,47.4,0.0,0.0,0.0,0.0,0.0,0.0,0.0,0.0,53.269394,-9.077332,27.1,18,1,,
683,685,1777486478.028,4/29/26 19:14,1777486477,4/29/26 18:14,gps,15.4,1020.0,15.7,47.3,0.0,0.0,0.0,0.0,0.0,0.0,0.0,0.0,53.269394,-9.077332,27.1,18,1,,
684,686,1777486479.022,4/29/26 19:14,1777486478,4/29/26 18:14,gps,15.4,1020.0,15.7,47.3,0.0,0.0,0.0,0.0,0.0,0.0,0.0,0.0,53.269394,-9.077332,27.1,18,1,,
685,687,1777486480.028,4/29/26 19:14,1777486479,4/29/26 18:14,gps,15.4,1020.0,15.8,47.4,0.0,0.0,0.0,0.0,0.0,0.0,0.0,0.0,53.269394,-9.077332,27.1,17,1,,
686,688,1777486481.022,4/29/26 19:14,1777486480,4/29/26 18:14,gps,15.4,1020.0,15.8,47.4,0.0,0.0,0.0,0.0,0.0,0.0,0.0,0.0,53.269394,-9.077332,27.1,17,1,,
687,689,1777486482.031,4/29/26 19:14,1777486481,4/29/26 18:14,gps,15.5,1020.0,15.7,47.2,0.0,0.0,0.0,0.0,0.0,0.0,0.0,0.0,53.269394,-9.077331,27.2,17,1,,
688,690,1777486483.022,4/29/26 19:14,1777486482,4/29/26 18:14,gps,15.5,1020.0,15.7,47.2,0.0,0.0,0.0,0.0,0.0,0.0,0.0,0.0,53.269394,-9.077331,27.2,17,1,,
689,691,1777486484.028,4/29/26 19:14,1777486483,4/29/26 18:14,gps,15.4,1020.0,15.8,47.3,0.0,0.0,0.0,0.0,0.0,0.0,0.0,0.0,53.269394,-9.077331,27.2,17,1,,
690,692,1777486485.022,4/29/26 19:14,1777486484,4/29/26 18:14,gps,15.4,1020.0,15.8,47.3,0.0,0.0,0.0,0.0,0.0,0.0,0.0,0.0,53.269394,-9.07733,27.2,17,1,,
691,693,1777486486.028,4/29/26 19:14,1777486485,4/29/26 18:14,gps,15.4,1020.0,15.7,47.3,0.0,0.0,0.0,0.0,0.0,0.0,0.0,0.0,53.269394,-9.07733,27.2,17,1,,
692,694,1777486487.022,4/29/26 19:14,1777486486,4/29/26 18:14,gps,15.5,1020.0,15.7,47.3,0.0,0.0,0.0,0.0,0.0,0.0,0.0,0.0,53.269394,-9.07733,27.2,17,1,,
693,695,1777486488.032,4/29/26 19:14,1777486487,4/29/26 18:14,gps,15.4,1020.0,15.8,47.4,0.0,0.0,0.0,0.0,0.0,0.0,0.0,0.0,53.269394,-9.07733,27.2,17,1,,
694,696,1777486489.022,4/29/26 19:14,1777486488,4/29/26 18:14,gps,15.5,1020.0,15.8,47.4,0.0,0.0,0.0,0.0,0.0,0.0,0.0,0.0,53.269394,-9.07733,27.2,17,1,,
695,697,1777486490.03,4/29/26 19:14,1777486489,4/29/26 18:14,gps,15.5,1020.0,15.8,47.3,0.0,0.0,0.0,0.0,0.0,0.0,0.0,0.0,53.269394,-9.07733,27.2,17,1,,
696,698,1777486491.022,4/29/26 19:14,1777486490,4/29/26 18:14,gps,15.5,1020.0,15.8,47.3,0.0,0.0,0.0,0.0,0.0,0.0,0.0,0.0,53.269394,-9.07733,27.2,17,1,,
697,699,1777486492.032,4/29/26 19:14,1777486491,4/29/26 18:14,gps,15.5,1020.0,15.7,47.2,0.0,0.0,0.0,0.0,0.0,0.0,0.0,0.0,53.269394,-9.07733,27.2,17,1,,
698,700,1777486493.022,4/29/26 19:14,1777486492,4/29/26 18:14,gps,15.4,1020.0,15.7,47.2,0.0,0.0,0.0,0.0,0.0,0.0,0.0,0.0,53.269394,-9.077329,27.2,17,1,,
699,701,1777486494.028,4/29/26 19:14,1777486493,4/29/26 18:14,gps,15.4,1020.0,15.7,47.2,0.0,0.0,0.0,0.0,0.0,0.0,0.0,0.0,53.269394,-9.077329,27.2,17,1,,
700,702,1777486495.022,4/29/26 19:14,1777486494,4/29/26 18:14,gps,15.5,1020.0,15.7,47.2,0.0,0.0,0.0,0.0,0.0,0.0,0.0,0.0,53.269394,-9.077329,27.2,17,1,,
701,703,1777486496.028,4/29/26 19:14,1777486495,4/29/26 18:14,gps,15.5,1020.0,15.7,47.2,0.0,0.0,0.0,0.0,0.0,0.0,0.0,0.0,53.269394,-9.077329,27.2,18,1,,
702,704,1777486497.022,4/29/26 19:14,1777486496,4/29/26 18:14,gps,15.5,1020.0,15.7,47.2,0.0,0.0,0.0,0.0,0.0,0.0,0.0,0.0,53.269394,-9.077329,27.2,18,1,,
703,705,1777486498.032,4/29/26 19:14,1777486497,4/29/26 18:14,gps,15.5,1020.0,15.7,47.2,0.0,0.0,0.0,0.0,0.0,0.0,0.0,0.0,53.269394,-9.077329,27.2,18,1,,
704,706,1777486499.022,4/29/26 19:14,1777486498,4/29/26 18:14,gps,15.5,1020.0,15.7,47.2,0.0,0.0,0.0,0.0,0.0,0.0,0.0,0.0,53.269394,-9.077329,27.2,18,1,,
705,707,1777486500.029,4/29/26 19:15,1777486499,4/29/26 18:14,gps,15.5,1020.0,15.7,47.2,0.0,0.0,0.0,0.0,0.0,0.0,0.0,0.0,53.269394,-9.077329,27.2,18,1,,
706,708,1777486501.022,4/29/26 19:15,1777486500,4/29/26 18:14,gps,15.5,1020.0,15.7,47.2,0.0,0.0,0.0,0.0,0.0,0.0,0.0,0.0,53.269394,-9.077329,27.2,18,1,,
707,709,1777486502.032,4/29/26 19:15,1777486501,4/29/26 18:15,gps,15.5,1020.0,15.8,47.3,0.0,0.0,0.0,0.0,0.0,0.0,0.0,0.0,53.269394,-9.077329,27.2,18,1,,
708,710,1777486503.022,4/29/26 19:15,1777486502,4/29/26 18:15,gps,15.5,1020.0,15.8,47.3,0.0,0.0,0.0,0.0,0.0,0.0,0.0,0.0,53.269394,-9.077329,27.2,18,1,,
709,711,1777486504.028,4/29/26 19:15,1777486503,4/29/26 18:15,gps,15.5,1020.0,15.8,47.3,0.0,0.0,0.0,0.0,0.0,0.0,0.0,0.0,53.269394,-9.077329,27.2,18,1,,
710,712,1777486505.024,4/29/26 19:15,1777486504,4/29/26 18:15,gps,15.5,1020.0,15.8,47.3,0.0,0.0,0.0,0.0,0.0,0.0,0.0,0.0,53.269394,-9.077329,27.2,18,1,,
711,713,1777486506.028,4/29/26 19:15,1777486505,4/29/26 18:15,gps,15.5,1020.0,15.7,47.3,0.0,0.0,0.0,0.0,0.0,0.0,0.0,0.0,53.269394,-9.077329,27.2,18,1,,
712,714,1777486507.021,4/29/26 19:15,1777486506,4/29/26 18:15,gps,15.5,1020.0,15.7,47.3,0.0,0.0,0.0,0.0,0.0,0.0,0.0,0.0,53.269394,-9.077329,27.2,18,1,,
713,715,1777486508.029,4/29/26 19:15,1777486507,4/29/26 18:15,gps,15.5,1020.0,15.8,47.4,0.0,0.0,0.0,0.0,0.0,0.0,0.0,0.0,53.269394,-9.077329,27.2,18,1,,
714,716,1777486509.022,4/29/26 19:15,1777486508,4/29/26 18:15,gps,15.5,1020.0,15.8,47.4,0.0,0.0,0.0,0.0,0.0,0.0,0.0,0.0,53.269394,-9.077329,27.2,18,1,,
715,717,1777486510.031,4/29/26 19:15,1777486509,4/29/26 18:15,gps,15.5,1020.0,15.7,47.3,0.0,0.0,0.0,0.0,0.0,0.0,0.0,0.0,53.269394,-9.077328,27.2,17,1,,
716,718,1777486511.021,4/29/26 19:15,1777486510,4/29/26 18:15,gps,15.4,1020.0,15.7,47.3,0.0,0.0,0.0,0.0,0.0,0.0,0.0,0.0,53.269394,-9.077328,27.2,17,1,,
717,719,1777486512.032,4/29/26 19:15,1777486511,4/29/26 18:15,gps,15.4,1020.0,15.7,47.3,0.0,0.0,0.0,0.0,0.0,0.0,0.0,0.0,53.269394,-9.077328,27.2,17,1,,
718,720,1777486513.021,4/29/26 19:15,1777486512,4/29/26 18:15,gps,15.4,1020.0,15.7,47.3,0.0,0.0,0.0,0.0,0.0,0.0,0.0,0.0,53.269394,-9.077328,27.2,17,1,,
719,721,1777486514.028,4/29/26 19:15,1777486513,4/29/26 18:15,gps,15.4,1020.0,15.7,47.3,0.0,0.0,0.0,0.0,0.0,0.0,0.0,0.0,53.269394,-9.077328,27.2,18,1,,
720,722,1777486515.022,4/29/26 19:15,1777486514,4/29/26 18:15,gps,15.4,1020.0,15.7,47.3,0.0,0.0,0.0,0.0,0.0,0.0,0.0,0.0,53.269394,-9.077327,27.2,18,1,,
721,723,1777486516.03,4/29/26 19:15,1777486515,4/29/26 18:15,gps,15.5,1020.0,15.7,47.3,0.0,0.0,0.0,0.0,0.0,0.0,0.0,0.0,53.269394,-9.077327,27.2,18,1,,
722,724,1777486517.027,4/29/26 19:15,1777486516,4/29/26 18:15,gps,15.4,1020.0,15.7,47.3,0.0,0.0,0.0,0.0,0.0,0.0,0.0,0.0,53.269394,-9.077327,27.2,18,1,,
723,725,1777486518.028,4/29/26 19:15,1777486517,4/29/26 18:15,gps,15.4,1020.0,15.7,47.3,0.0,0.0,0.0,0.0,0.0,0.0,0.0,0.0,53.269394,-9.077327,27.2,18,1,,
724,726,1777486519.025,4/29/26 19:15,1777486518,4/29/26 18:15,gps,15.5,1020.0,15.7,47.3,0.0,0.0,0.0,0.0,0.0,0.0,0.0,0.0,53.269394,-9.077327,27.2,18,1,,
725,727,1777486520.028,4/29/26 19:15,1777486519,4/29/26 18:15,gps,15.5,1020.0,15.7,47.2,0.0,0.0,0.0,0.0,0.0,0.0,0.0,0.0,53.269394,-9.077327,27.2,18,1,,
726,728,1777486521.025,4/29/26 19:15,1777486520,4/29/26 18:15,gps,15.5,1020.0,15.7,47.2,0.0,0.0,0.0,0.0,0.0,0.0,0.0,0.0,53.269394,-9.077326,27.2,18,1,,
727,729,1777486522.027,4/29/26 19:15,1777486521,4/29/26 18:15,gps,15.5,1020.0,15.7,47.2,0.0,0.0,0.0,0.0,0.0,0.0,0.0,0.0,53.26939,-9.077326,27.2,18,1,,
728,730,1777486523.023,4/29/26 19:15,1777486522,4/29/26 18:15,gps,15.5,1020.0,15.7,47.2,0.0,0.0,0.0,0.0,0.0,0.0,0.0,0.0,53.26939,-9.077326,27.2,18,1,,
729,731,1777486524.028,4/29/26 19:15,1777486523,4/29/26 18:15,gps,15.5,1020.0,15.7,47.2,0.0,0.0,0.0,0.0,0.0,0.0,0.0,0.0,53.26939,-9.077326,27.2,18,1,,
730,732,1777486525.021,4/29/26 19:15,1777486524,4/29/26 18:15,gps,15.5,1020.0,15.7,47.2,0.0,0.0,0.0,0.0,0.0,0.0,0.0,0.0,53.26939,-9.077325,27.2,18,1,,
731,733,1777486526.028,4/29/26 19:15,1777486525,4/29/26 18:15,gps,15.5,1020.0,15.7,47.2,0.0,0.0,0.0,0.0,0.0,0.0,0.0,0.0,53.26939,-9.077325,27.1,18,1,,
732,734,1777486527.021,4/29/26 19:15,1777486526,4/29/26 18:15,gps,15.4,1020.0,15.7,47.2,0.0,0.0,0.0,0.0,0.0,0.0,0.0,0.0,53.26939,-9.077325,27.1,18,1,,
733,735,1777486528.027,4/29/26 19:15,1777486527,4/29/26 18:15,gps,15.4,1020.0,15.7,47.2,0.0,0.0,0.0,0.0,0.0,0.0,0.0,0.0,53.26939,-9.077325,27.1,18,1,,
734,736,1777486529.022,4/29/26 19:15,1777486528,4/29/26 18:15,gps,15.4,1020.0,15.7,47.2,0.0,0.0,0.0,0.0,0.0,0.0,0.0,0.0,53.26939,-9.077325,27.1,18,1,,
735,737,1777486530.028,4/29/26 19:15,1777486529,4/29/26 18:15,gps,15.4,1020.0,15.8,47.3,0.0,0.0,0.0,0.0,0.0,0.0,0.0,0.0,53.26939,-9.077325,27.1,18,1,,
736,738,1777486531.021,4/29/26 19:15,1777486530,4/29/26 18:15,gps,15.4,1020.0,15.8,47.3,0.0,0.0,0.0,0.0,0.0,0.0,0.0,0.0,53.26939,-9.077325,27.1,18,1,,
737,739,1777486532.028,4/29/26 19:15,1777486531,4/29/26 18:15,gps,15.4,1020.0,15.7,47.3,0.0,0.0,0.0,0.0,0.0,0.0,0.0,0.0,53.26939,-9.077325,27.1,18,1,,
738,740,1777486533.023,4/29/26 19:15,1777486532,4/29/26 18:15,gps,15.4,1020.0,15.7,47.3,0.0,0.0,0.0,0.0,0.0,0.0,0.0,0.0,53.26939,-9.077325,27.1,18,1,,
739,741,1777486534.027,4/29/26 19:15,1777486533,4/29/26 18:15,gps,15.4,1020.0,15.8,47.5,0.0,0.0,0.0,0.0,0.0,0.0,0.0,0.0,53.26939,-9.077324,27.1,18,1,,
740,742,1777486535.022,4/29/26 19:15,1777486534,4/29/26 18:15,gps,15.4,1020.0,15.8,47.5,0.0,0.0,0.0,0.0,0.0,0.0,0.0,0.0,53.26939,-9.077324,27.1,18,1,,
741,743,1777486536.031,4/29/26 19:15,1777486535,4/29/26 18:15,gps,15.3,1020.0,15.7,47.5,0.0,0.0,0.0,0.0,0.0,0.0,0.0,0.0,53.26939,-9.077324,27.1,18,1,,
742,744,1777486537.021,4/29/26 19:15,1777486536,4/29/26 18:15,gps,15.3,1020.0,15.7,47.5,0.0,0.0,0.0,0.0,0.0,0.0,0.0,0.0,53.26939,-9.077324,27.1,18,1,,
743,745,1777486538.031,4/29/26 19:15,1777486537,4/29/26 18:15,gps,15.3,1020.0,15.7,47.6,0.0,0.0,0.0,0.0,0.0,0.0,0.0,0.0,53.26939,-9.077324,27.1,18,1,,
744,746,1777486539.021,4/29/26 19:15,1777486538,4/29/26 18:15,gps,15.3,1020.0,15.7,47.6,0.0,0.0,0.0,0.0,0.0,0.0,0.0,0.0,53.26939,-9.077324,27.1,18,1,,
745,747,1777486540.027,4/29/26 19:15,1777486539,4/29/26 18:15,gps,15.3,1020.0,15.7,47.7,0.0,0.0,0.0,0.0,0.0,0.0,0.0,0.0,53.26939,-9.077324,27.1,18,1,,
746,748,1777486541.021,4/29/26 19:15,1777486540,4/29/26 18:15,gps,15.3,1020.0,15.7,47.7,0.0,0.0,0.0,0.0,0.0,0.0,0.0,0.0,53.26939,-9.077324,27.1,18,1,,
747,749,1777486542.028,4/29/26 19:15,1777486541,4/29/26 18:15,gps,15.3,1020.0,15.7,47.7,0.0,0.0,0.0,0.0,0.0,0.0,0.0,0.0,53.26939,-9.077324,27.1,18,1,,
748,750,1777486543.021,4/29/26 19:15,1777486542,4/29/26 18:15,gps,15.3,1020.0,15.7,47.7,0.0,0.0,0.0,0.0,0.0,0.0,0.0,0.0,53.26939,-9.077324,27.1,18,1,,
749,751,1777486544.031,4/29/26 19:15,1777486543,4/29/26 18:15,gps,15.3,1020.0,15.7,47.9,0.0,0.0,0.0,0.0,0.0,0.0,0.0,0.0,53.26939,-9.077324,27.1,18,1,,
750,752,1777486545.021,4/29/26 19:15,1777486544,4/29/26 18:15,gps,15.3,1020.0,15.7,47.9,0.0,0.0,0.0,0.0,0.0,0.0,0.0,0.0,53.269394,-9.077324,27.1,18,1,,
751,753,1777486546.031,4/29/26 19:15,1777486545,4/29/26 18:15,gps,15.3,1020.0,15.7,47.8,0.0,0.0,0.0,0.0,0.0,0.0,0.0,0.0,53.269394,-9.077324,27.1,18,1,,
752,754,1777486547.021,4/29/26 19:15,1777486546,4/29/26 18:15,gps,15.3,1020.0,15.7,47.8,0.0,0.0,0.0,0.0,0.0,0.0,0.0,0.0,53.269394,-9.077324,27.1,18,1,,
753,755,1777486548.028,4/29/26 19:15,1777486547,4/29/26 18:15,gps,15.3,1020.0,15.7,47.8,0.0,0.0,0.0,0.0,0.0,0.0,0.0,0.0,53.269394,-9.077324,27.1,18,1,,
754,756,1777486549.021,4/29/26 19:15,1777486548,4/29/26 18:15,gps,15.3,1020.0,15.7,47.8,0.0,0.0,0.0,0.0,0.0,0.0,0.0,0.0,53.269394,-9.077323,27.1,18,1,,
755,757,1777486550.033,4/29/26 19:15,1777486549,4/29/26 18:15,gps,15.3,1020.0,15.7,47.7,0.0,0.0,0.0,0.0,0.0,0.0,0.0,0.0,53.269394,-9.077323,27.1,18,1,,
756,758,1777486551.026,4/29/26 19:15,1777486550,4/29/26 18:15,gps,15.3,1020.0,15.7,47.7,0.0,0.0,0.0,0.0,0.0,0.0,0.0,0.0,53.269394,-9.077323,27.1,18,1,,
757,759,1777486552.028,4/29/26 19:15,1777486551,4/29/26 18:15,gps,15.3,1020.0,15.7,47.7,0.0,0.0,0.0,0.0,0.0,0.0,0.0,0.0,53.269394,-9.077323,27.1,18,1,,
758,760,1777486553.021,4/29/26 19:15,1777486552,4/29/26 18:15,gps,15.3,1020.0,15.7,47.7,0.0,0.0,0.0,0.0,0.0,0.0,0.0,0.0,53.269394,-9.077323,27.1,18,1,,
759,761,1777486554.027,4/29/26 19:15,1777486553,4/29/26 18:15,gps,15.3,1020.0,15.7,47.6,0.0,0.0,0.0,0.0,0.0,0.0,0.0,0.0,53.269394,-9.077323,27.1,17,1,,
760,762,1777486555.021,4/29/26 19:15,1777486554,4/29/26 18:15,gps,15.3,1020.0,15.7,47.6,0.0,0.0,0.0,0.0,0.0,0.0,0.0,0.0,53.269394,-9.077323,27.1,17,1,,
761,763,1777486556.027,4/29/26 19:15,1777486555,4/29/26 18:15,gps,15.3,1020.0,15.7,47.5,0.0,0.0,0.0,0.0,0.0,0.0,0.0,0.0,53.269394,-9.077323,27.1,17,1,,
762,764,1777486557.021,4/29/26 19:15,1777486556,4/29/26 18:15,gps,15.3,1020.0,15.7,47.5,0.0,0.0,0.0,0.0,0.0,0.0,0.0,0.0,53.269394,-9.077323,27.1,17,1,,
763,765,1777486558.027,4/29/26 19:15,1777486557,4/29/26 18:15,gps,15.3,1020.0,15.7,47.5,0.0,0.0,0.0,0.0,0.0,0.0,0.0,0.0,53.269394,-9.077323,27.1,18,1,,
764,766,1777486559.021,4/29/26 19:15,1777486558,4/29/26 18:15,gps,15.3,1020.0,15.7,47.5,0.0,0.0,0.0,0.0,0.0,0.0,0.0,0.0,53.269394,-9.077323,27.1,18,1,,
765,767,1777486560.027,4/29/26 19:15,1777486559,4/29/26 18:15,gps,15.4,1020.0,15.7,47.5,0.0,0.0,0.0,0.0,0.0,0.0,0.0,0.0,53.269394,-9.077323,27.1,18,1,,
766,768,1777486561.023,4/29/26 19:16,1777486560,4/29/26 18:15,gps,15.4,1020.0,15.7,47.5,0.0,0.0,0.0,0.0,0.0,0.0,0.0,0.0,53.269394,-9.077323,27.1,18,1,,
767,769,1777486562.027,4/29/26 19:16,1777486561,4/29/26 18:16,gps,15.4,1020.0,15.7,47.4,0.0,0.0,0.0,0.0,0.0,0.0,0.0,0.0,53.269394,-9.077323,27.1,18,1,,
768,770,1777486563.023,4/29/26 19:16,1777486562,4/29/26 18:16,gps,15.4,1020.0,15.7,47.4,0.0,0.0,0.0,0.0,0.0,0.0,0.0,0.0,53.269394,-9.077323,27.1,18,1,,
769,771,1777486564.027,4/29/26 19:16,1777486563,4/29/26 18:16,gps,15.4,1020.0,15.7,47.4,0.0,0.0,0.0,0.0,0.0,0.0,0.0,0.0,53.269394,-9.077323,27.1,18,1,,
770,772,1777486565.03,4/29/26 19:16,1777486564,4/29/26 18:16,gps,15.4,1020.0,15.7,47.4,0.0,0.0,0.0,0.0,0.0,0.0,0.0,0.0,53.269394,-9.077323,27.1,18,1,,
771,773,1777486566.027,4/29/26 19:16,1777486565,4/29/26 18:16,gps,15.4,1020.0,15.7,47.5,0.0,0.0,0.0,0.0,0.0,0.0,0.0,0.0,53.269394,-9.077323,27.1,18,1,,
772,774,1777486567.021,4/29/26 19:16,1777486566,4/29/26 18:16,gps,15.4,1020.0,15.7,47.5,0.0,0.0,0.0,0.0,0.0,0.0,0.0,0.0,53.269394,-9.077324,27.1,18,1,,
773,775,1777486568.027,4/29/26 19:16,1777486567,4/29/26 18:16,gps,15.4,1020.0,15.7,47.4,0.0,0.0,0.0,0.0,0.0,0.0,0.0,0.0,53.269394,-9.077324,27.1,18,1,,
774,776,1777486569.023,4/29/26 19:16,1777486568,4/29/26 18:16,gps,15.4,1020.0,15.7,47.4,0.0,0.0,0.0,0.0,0.0,0.0,0.0,0.0,53.269394,-9.077324,27.1,18,1,,
775,777,1777486570.027,4/29/26 19:16,1777486569,4/29/26 18:16,gps,15.4,1020.0,15.7,47.4,0.0,0.0,0.0,0.0,0.0,0.0,0.0,0.0,53.269394,-9.077324,27.1,18,1,,
776,778,1777486571.024,4/29/26 19:16,1777486570,4/29/26 18:16,gps,15.4,1020.0,15.7,47.4,0.0,0.0,0.0,0.0,0.0,0.0,0.0,0.0,53.269394,-9.077324,27.1,18,1,,
777,779,1777486572.027,4/29/26 19:16,1777486571,4/29/26 18:16,gps,15.4,1020.0,15.7,47.3,0.0,0.0,0.0,0.0,0.0,0.0,0.0,0.0,53.269394,-9.077324,27.1,18,1,,
778,780,1777486573.021,4/29/26 19:16,1777486572,4/29/26 18:16,gps,15.4,1020.0,15.7,47.3,0.0,0.0,0.0,0.0,0.0,0.0,0.0,0.0,53.269394,-9.077324,27.1,18,1,,
779,781,1777486574.027,4/29/26 19:16,1777486573,4/29/26 18:16,gps,15.4,1020.0,15.7,47.3,0.0,0.0,0.0,0.0,0.0,0.0,0.0,0.0,53.269394,-9.077324,27.1,18,1,,
780,782,1777486575.021,4/29/26 19:16,1777486574,4/29/26 18:16,gps,15.4,1020.0,15.7,47.3,0.0,0.0,0.0,0.0,0.0,0.0,0.0,0.0,53.269394,-9.077324,27.1,18,1,,
781,783,1777486576.027,4/29/26 19:16,1777486575,4/29/26 18:16,gps,15.4,1020.0,15.7,47.3,0.0,0.0,0.0,0.0,0.0,0.0,0.0,0.0,53.269394,-9.077325,27.1,18,1,,
782,784,1777486577.021,4/29/26 19:16,1777486576,4/29/26 18:16,gps,15.4,1020.0,15.7,47.3,0.0,0.0,0.0,0.0,0.0,0.0,0.0,0.0,53.269394,-9.077325,27.1,18,1,,
783,785,1777486578.027,4/29/26 19:16,1777486577,4/29/26 18:16,gps,15.4,1020.0,15.7,47.3,0.0,0.0,0.0,0.0,0.0,0.0,0.0,0.0,53.269394,-9.077325,27.1,18,1,,
784,786,1777486579.023,4/29/26 19:16,1777486578,4/29/26 18:16,gps,15.4,1020.0,15.7,47.3,0.0,0.0,0.0,0.0,0.0,0.0,0.0,0.0,53.269394,-9.077325,27.1,17,1,,
785,787,1777486580.027,4/29/26 19:16,1777486579,4/29/26 18:16,gps,15.4,1020.0,15.7,47.4,0.0,0.0,0.0,0.0,0.0,0.0,0.0,0.0,53.269394,-9.077325,27.1,17,1,,
786,788,1777486581.021,4/29/26 19:16,1777486580,4/29/26 18:16,gps,15.4,1020.0,15.7,47.4,0.0,0.0,0.0,0.0,0.0,0.0,0.0,0.0,53.269394,-9.077325,27.1,17,1,,
787,789,1777486582.029,4/29/26 19:16,1777486581,4/29/26 18:16,gps,15.4,1020.0,15.7,47.4,0.0,0.0,0.0,0.0,0.0,0.0,0.0,0.0,53.269394,-9.077325,27.1,18,1,,
788,790,1777486583.021,4/29/26 19:16,1777486582,4/29/26 18:16,gps,15.4,1020.0,15.7,47.4,0.0,0.0,0.0,0.0,0.0,0.0,0.0,0.0,53.269394,-9.077325,27.1,18,1,,
789,791,1777486584.027,4/29/26 19:16,1777486583,4/29/26 18:16,gps,15.4,1020.0,15.7,47.4,0.0,0.0,0.0,0.0,0.0,0.0,0.0,0.0,53.269394,-9.077325,27.1,18,1,,
790,792,1777486585.021,4/29/26 19:16,1777486584,4/29/26 18:16,gps,15.4,1020.0,15.7,47.4,0.0,0.0,0.0,0.0,0.0,0.0,0.0,0.0,53.269394,-9.077325,27.1,18,1,,
